key_resp_2.keys,key_resp_2.rt,key_resp_3.keys,key_resp_3.rt,key_resp.keys,key_resp.rt,key_resp_4.keys,trials.thisRepN,trials.thisTrialN,trials.thisN,trials.thisIndex,trials.ran,stimulus,distractor1,distractor2,distractor3,distractor4,CorrAns,isi_duration,isi_dur_in_seconds,participant,session,date,expName,psychopyVersion,OS,frameRate,PROLIFIC_PID,STUDY_ID,SESSION_ID,key_resp_4.rt
return,12.0793,space,31.6149,space,0.4573,,0,0,0,143,1,M, , , , ,space,2500,2.5,611d33f0b3342b0f5fefbb1d,001,2021-08-19_15h10.27.597,natb3,2021.2.3,Win32,30.00930288,611d33f0b3342b0f5fefbb1d,611e07ecdcc96256ae8d5b80,611e663aec5d416aef29f378,
,,,,space,0.3945,,0,1,1,147,1,E, , , , ,space,2000,2,611d33f0b3342b0f5fefbb1d,001,2021-08-19_15h10.27.597,natb3,2021.2.3,Win32,30.00930288,611d33f0b3342b0f5fefbb1d,611e07ecdcc96256ae8d5b80,611e663aec5d416aef29f378,
,,,,space,0.5187,,0,2,2,135,1,K, , , , ,space,1500,1.5,611d33f0b3342b0f5fefbb1d,001,2021-08-19_15h10.27.597,natb3,2021.2.3,Win32,30.00930288,611d33f0b3342b0f5fefbb1d,611e07ecdcc96256ae8d5b80,611e663aec5d416aef29f378,
,,,,space,0.3568,,0,3,3,241,1,G, , , , ,space,2500,2.5,611d33f0b3342b0f5fefbb1d,001,2021-08-19_15h10.27.597,natb3,2021.2.3,Win32,30.00930288,611d33f0b3342b0f5fefbb1d,611e07ecdcc96256ae8d5b80,611e663aec5d416aef29f378,
,,,,space,0.4279,,0,4,4,6,1,Y, , , , ,space,2500,2.5,611d33f0b3342b0f5fefbb1d,001,2021-08-19_15h10.27.597,natb3,2021.2.3,Win32,30.00930288,611d33f0b3342b0f5fefbb1d,611e07ecdcc96256ae8d5b80,611e663aec5d416aef29f378,
,,,,space,0.4608,,0,5,5,327,1,E, , , , ,space,1500,1.5,611d33f0b3342b0f5fefbb1d,001,2021-08-19_15h10.27.597,natb3,2021.2.3,Win32,30.00930288,611d33f0b3342b0f5fefbb1d,611e07ecdcc96256ae8d5b80,611e663aec5d416aef29f378,
,,,,space,0.3981,,0,6,6,45,1,O, , , , ,space,2000,2,611d33f0b3342b0f5fefbb1d,001,2021-08-19_15h10.27.597,natb3,2021.2.3,Win32,30.00930288,611d33f0b3342b0f5fefbb1d,611e07ecdcc96256ae8d5b80,611e663aec5d416aef29f378,
,,,,space,0.4028,,0,7,7,126,1,A, , , , ,space,2500,2.5,611d33f0b3342b0f5fefbb1d,001,2021-08-19_15h10.27.597,natb3,2021.2.3,Win32,30.00930288,611d33f0b3342b0f5fefbb1d,611e07ecdcc96256ae8d5b80,611e663aec5d416aef29f378,
,,,,space,0.4198,,0,8,8,190,1,P, , , , ,space,2000,2,611d33f0b3342b0f5fefbb1d,001,2021-08-19_15h10.27.597,natb3,2021.2.3,Win32,30.00930288,611d33f0b3342b0f5fefbb1d,611e07ecdcc96256ae8d5b80,611e663aec5d416aef29f378,
,,,,space,0.4444,,0,9,9,31,1,X, , , , ,,1500,1.5,611d33f0b3342b0f5fefbb1d,001,2021-08-19_15h10.27.597,natb3,2021.2.3,Win32,30.00930288,611d33f0b3342b0f5fefbb1d,611e07ecdcc96256ae8d5b80,611e663aec5d416aef29f378,
,,,,space,0.3551,,0,10,10,112,1,Q, , , , ,space,2500,2.5,611d33f0b3342b0f5fefbb1d,001,2021-08-19_15h10.27.597,natb3,2021.2.3,Win32,30.00930288,611d33f0b3342b0f5fefbb1d,611e07ecdcc96256ae8d5b80,611e663aec5d416aef29f378,
,,,,space,0.5352,,0,11,11,40,1,T, , , , ,space,1500,1.5,611d33f0b3342b0f5fefbb1d,001,2021-08-19_15h10.27.597,natb3,2021.2.3,Win32,30.00930288,611d33f0b3342b0f5fefbb1d,611e07ecdcc96256ae8d5b80,611e663aec5d416aef29f378,
,,,,space,0.445,,0,12,12,189,1,O, , , , ,space,1500,1.5,611d33f0b3342b0f5fefbb1d,001,2021-08-19_15h10.27.597,natb3,2021.2.3,Win32,30.00930288,611d33f0b3342b0f5fefbb1d,611e07ecdcc96256ae8d5b80,611e663aec5d416aef29f378,
,,,,space,0.4546,,0,13,13,304,1,S, , , , ,space,2000,2,611d33f0b3342b0f5fefbb1d,001,2021-08-19_15h10.27.597,natb3,2021.2.3,Win32,30.00930288,611d33f0b3342b0f5fefbb1d,611e07ecdcc96256ae8d5b80,611e663aec5d416aef29f378,
,,,,space,0.4915,,0,14,14,9,1,I, , , , ,space,1500,1.5,611d33f0b3342b0f5fefbb1d,001,2021-08-19_15h10.27.597,natb3,2021.2.3,Win32,30.00930288,611d33f0b3342b0f5fefbb1d,611e07ecdcc96256ae8d5b80,611e663aec5d416aef29f378,
,,,,space,0.4572,,0,15,15,321,1,N, , , , ,space,2000,2,611d33f0b3342b0f5fefbb1d,001,2021-08-19_15h10.27.597,natb3,2021.2.3,Win32,30.00930288,611d33f0b3342b0f5fefbb1d,611e07ecdcc96256ae8d5b80,611e663aec5d416aef29f378,
,,,,space,0.4484,,0,16,16,159,1,S, , , , ,space,2500,2.5,611d33f0b3342b0f5fefbb1d,001,2021-08-19_15h10.27.597,natb3,2021.2.3,Win32,30.00930288,611d33f0b3342b0f5fefbb1d,611e07ecdcc96256ae8d5b80,611e663aec5d416aef29f378,
,,,,space,0.7704,,0,17,17,136,1,Z, , , , ,space,2500,2.5,611d33f0b3342b0f5fefbb1d,001,2021-08-19_15h10.27.597,natb3,2021.2.3,Win32,30.00930288,611d33f0b3342b0f5fefbb1d,611e07ecdcc96256ae8d5b80,611e663aec5d416aef29f378,
,,,,space,0.4989,,0,18,18,26,1,C, , , , ,space,2000,2,611d33f0b3342b0f5fefbb1d,001,2021-08-19_15h10.27.597,natb3,2021.2.3,Win32,30.00930288,611d33f0b3342b0f5fefbb1d,611e07ecdcc96256ae8d5b80,611e663aec5d416aef29f378,
,,,,,,,0,19,19,82,1,X,4,6,1,7,,2000,2,611d33f0b3342b0f5fefbb1d,001,2021-08-19_15h10.27.597,natb3,2021.2.3,Win32,30.00930288,611d33f0b3342b0f5fefbb1d,611e07ecdcc96256ae8d5b80,611e663aec5d416aef29f378,
,,,,space,0.5117,,0,20,20,92,1,Z, , , , ,space,1500,1.5,611d33f0b3342b0f5fefbb1d,001,2021-08-19_15h10.27.597,natb3,2021.2.3,Win32,30.00930288,611d33f0b3342b0f5fefbb1d,611e07ecdcc96256ae8d5b80,611e663aec5d416aef29f378,
,,,,space,0.5417,,0,21,21,49,1,S, , , , ,space,1500,1.5,611d33f0b3342b0f5fefbb1d,001,2021-08-19_15h10.27.597,natb3,2021.2.3,Win32,30.00930288,611d33f0b3342b0f5fefbb1d,611e07ecdcc96256ae8d5b80,611e663aec5d416aef29f378,
,,,,space,0.4594,,0,22,22,86,1,G, , , , ,space,2000,2,611d33f0b3342b0f5fefbb1d,001,2021-08-19_15h10.27.597,natb3,2021.2.3,Win32,30.00930288,611d33f0b3342b0f5fefbb1d,611e07ecdcc96256ae8d5b80,611e663aec5d416aef29f378,
,,,,,,,0,23,23,318,1,X, , , , ,,1500,1.5,611d33f0b3342b0f5fefbb1d,001,2021-08-19_15h10.27.597,natb3,2021.2.3,Win32,30.00930288,611d33f0b3342b0f5fefbb1d,611e07ecdcc96256ae8d5b80,611e663aec5d416aef29f378,
,,,,space,0.5169,,0,24,24,67,1,Q, , , , ,space,2000,2,611d33f0b3342b0f5fefbb1d,001,2021-08-19_15h10.27.597,natb3,2021.2.3,Win32,30.00930288,611d33f0b3342b0f5fefbb1d,611e07ecdcc96256ae8d5b80,611e663aec5d416aef29f378,
,,,,space,0.5071,,0,25,25,167,1,K, , , , ,space,1500,1.5,611d33f0b3342b0f5fefbb1d,001,2021-08-19_15h10.27.597,natb3,2021.2.3,Win32,30.00930288,611d33f0b3342b0f5fefbb1d,611e07ecdcc96256ae8d5b80,611e663aec5d416aef29f378,
,,,,space,0.4823,,0,26,26,176,1,N, , , , ,space,1500,1.5,611d33f0b3342b0f5fefbb1d,001,2021-08-19_15h10.27.597,natb3,2021.2.3,Win32,30.00930288,611d33f0b3342b0f5fefbb1d,611e07ecdcc96256ae8d5b80,611e663aec5d416aef29f378,
,,,,space,0.4777,,0,27,27,309,1,H, , , , ,space,2500,2.5,611d33f0b3342b0f5fefbb1d,001,2021-08-19_15h10.27.597,natb3,2021.2.3,Win32,30.00930288,611d33f0b3342b0f5fefbb1d,611e07ecdcc96256ae8d5b80,611e663aec5d416aef29f378,
,,,,space,0.506,,0,28,28,8,1,U, , , , ,space,1500,1.5,611d33f0b3342b0f5fefbb1d,001,2021-08-19_15h10.27.597,natb3,2021.2.3,Win32,30.00930288,611d33f0b3342b0f5fefbb1d,611e07ecdcc96256ae8d5b80,611e663aec5d416aef29f378,
,,,,space,0.5177,,0,29,29,68,1,W, , , , ,space,2500,2.5,611d33f0b3342b0f5fefbb1d,001,2021-08-19_15h10.27.597,natb3,2021.2.3,Win32,30.00930288,611d33f0b3342b0f5fefbb1d,611e07ecdcc96256ae8d5b80,611e663aec5d416aef29f378,
,,,,,,,0,30,30,141,1,X,1, ,4,6,,1500,1.5,611d33f0b3342b0f5fefbb1d,001,2021-08-19_15h10.27.597,natb3,2021.2.3,Win32,30.00930288,611d33f0b3342b0f5fefbb1d,611e07ecdcc96256ae8d5b80,611e663aec5d416aef29f378,
,,,,space,0.6042,,0,31,31,169,1,L, , , , ,space,2500,2.5,611d33f0b3342b0f5fefbb1d,001,2021-08-19_15h10.27.597,natb3,2021.2.3,Win32,30.00930288,611d33f0b3342b0f5fefbb1d,611e07ecdcc96256ae8d5b80,611e663aec5d416aef29f378,
,,,,,,,0,32,32,54,1,X, , , , ,,2000,2,611d33f0b3342b0f5fefbb1d,001,2021-08-19_15h10.27.597,natb3,2021.2.3,Win32,30.00930288,611d33f0b3342b0f5fefbb1d,611e07ecdcc96256ae8d5b80,611e663aec5d416aef29f378,
,,,,space,0.4285,,0,33,33,28,1,V, , , , ,space,1500,1.5,611d33f0b3342b0f5fefbb1d,001,2021-08-19_15h10.27.597,natb3,2021.2.3,Win32,30.00930288,611d33f0b3342b0f5fefbb1d,611e07ecdcc96256ae8d5b80,611e663aec5d416aef29f378,
,,,,,,,0,34,34,43,1,X, ,6, ,2,,2500,2.5,611d33f0b3342b0f5fefbb1d,001,2021-08-19_15h10.27.597,natb3,2021.2.3,Win32,30.00930288,611d33f0b3342b0f5fefbb1d,611e07ecdcc96256ae8d5b80,611e663aec5d416aef29f378,
,,,,space,0.4985,,0,35,35,61,1,C, , , , ,space,2000,2,611d33f0b3342b0f5fefbb1d,001,2021-08-19_15h10.27.597,natb3,2021.2.3,Win32,30.00930288,611d33f0b3342b0f5fefbb1d,611e07ecdcc96256ae8d5b80,611e663aec5d416aef29f378,
,,,,space,0.5264,,0,36,36,123,1,O, , , , ,space,1500,1.5,611d33f0b3342b0f5fefbb1d,001,2021-08-19_15h10.27.597,natb3,2021.2.3,Win32,30.00930288,611d33f0b3342b0f5fefbb1d,611e07ecdcc96256ae8d5b80,611e663aec5d416aef29f378,
,,,,space,0.5365,,0,37,37,281,1,Z, , , , ,space,1500,1.5,611d33f0b3342b0f5fefbb1d,001,2021-08-19_15h10.27.597,natb3,2021.2.3,Win32,30.00930288,611d33f0b3342b0f5fefbb1d,611e07ecdcc96256ae8d5b80,611e663aec5d416aef29f378,
,,,,space,0.445,,0,38,38,242,1,H, , , , ,space,2500,2.5,611d33f0b3342b0f5fefbb1d,001,2021-08-19_15h10.27.597,natb3,2021.2.3,Win32,30.00930288,611d33f0b3342b0f5fefbb1d,611e07ecdcc96256ae8d5b80,611e663aec5d416aef29f378,
,,,,,,,0,39,39,191,1,X,1, ,3,4,,2500,2.5,611d33f0b3342b0f5fefbb1d,001,2021-08-19_15h10.27.597,natb3,2021.2.3,Win32,30.00930288,611d33f0b3342b0f5fefbb1d,611e07ecdcc96256ae8d5b80,611e663aec5d416aef29f378,
,,,,space,0.511,,0,40,40,87,1,H, , , , ,space,1500,1.5,611d33f0b3342b0f5fefbb1d,001,2021-08-19_15h10.27.597,natb3,2021.2.3,Win32,30.00930288,611d33f0b3342b0f5fefbb1d,611e07ecdcc96256ae8d5b80,611e663aec5d416aef29f378,
,,,,space,0.4329,,0,41,41,19,1,G, , , , ,space,1500,1.5,611d33f0b3342b0f5fefbb1d,001,2021-08-19_15h10.27.597,natb3,2021.2.3,Win32,30.00930288,611d33f0b3342b0f5fefbb1d,611e07ecdcc96256ae8d5b80,611e663aec5d416aef29f378,
,,,,space,0.5027,,0,42,42,130,1,F, , , , ,space,2000,2,611d33f0b3342b0f5fefbb1d,001,2021-08-19_15h10.27.597,natb3,2021.2.3,Win32,30.00930288,611d33f0b3342b0f5fefbb1d,611e07ecdcc96256ae8d5b80,611e663aec5d416aef29f378,
,,,,space,0.5477,,0,43,43,108,1,Y, , , , ,space,2500,2.5,611d33f0b3342b0f5fefbb1d,001,2021-08-19_15h10.27.597,natb3,2021.2.3,Win32,30.00930288,611d33f0b3342b0f5fefbb1d,611e07ecdcc96256ae8d5b80,611e663aec5d416aef29f378,
,,,,space,0.4594,,0,44,44,20,1,H, , , , ,space,1500,1.5,611d33f0b3342b0f5fefbb1d,001,2021-08-19_15h10.27.597,natb3,2021.2.3,Win32,30.00930288,611d33f0b3342b0f5fefbb1d,611e07ecdcc96256ae8d5b80,611e663aec5d416aef29f378,
,,,,space,0.5323,,0,45,45,269,1,A, , , , ,space,2500,2.5,611d33f0b3342b0f5fefbb1d,001,2021-08-19_15h10.27.597,natb3,2021.2.3,Win32,30.00930288,611d33f0b3342b0f5fefbb1d,611e07ecdcc96256ae8d5b80,611e663aec5d416aef29f378,
,,,,space,0.5022,,0,46,46,217,1,T, , , , ,space,2500,2.5,611d33f0b3342b0f5fefbb1d,001,2021-08-19_15h10.27.597,natb3,2021.2.3,Win32,30.00930288,611d33f0b3342b0f5fefbb1d,611e07ecdcc96256ae8d5b80,611e663aec5d416aef29f378,
,,,,space,0.6373,,0,47,47,34,1,Q, , , , ,space,2500,2.5,611d33f0b3342b0f5fefbb1d,001,2021-08-19_15h10.27.597,natb3,2021.2.3,Win32,30.00930288,611d33f0b3342b0f5fefbb1d,611e07ecdcc96256ae8d5b80,611e663aec5d416aef29f378,
,,,,space,0.4236,,0,48,48,331,1,Y, , , , ,space,2500,2.5,611d33f0b3342b0f5fefbb1d,001,2021-08-19_15h10.27.597,natb3,2021.2.3,Win32,30.00930288,611d33f0b3342b0f5fefbb1d,611e07ecdcc96256ae8d5b80,611e663aec5d416aef29f378,
,,,,space,0.393,,0,49,49,330,1,T, , , , ,space,2500,2.5,611d33f0b3342b0f5fefbb1d,001,2021-08-19_15h10.27.597,natb3,2021.2.3,Win32,30.00930288,611d33f0b3342b0f5fefbb1d,611e07ecdcc96256ae8d5b80,611e663aec5d416aef29f378,
,,,,space,0.5251,,0,50,50,3,1,R, , , , ,space,2000,2,611d33f0b3342b0f5fefbb1d,001,2021-08-19_15h10.27.597,natb3,2021.2.3,Win32,30.00930288,611d33f0b3342b0f5fefbb1d,611e07ecdcc96256ae8d5b80,611e663aec5d416aef29f378,
,,,,space,0.485,,0,51,51,279,1,K, , , , ,space,2500,2.5,611d33f0b3342b0f5fefbb1d,001,2021-08-19_15h10.27.597,natb3,2021.2.3,Win32,30.00930288,611d33f0b3342b0f5fefbb1d,611e07ecdcc96256ae8d5b80,611e663aec5d416aef29f378,
,,,,,,,0,52,52,133,1,X, ,4, ,6,,2500,2.5,611d33f0b3342b0f5fefbb1d,001,2021-08-19_15h10.27.597,natb3,2021.2.3,Win32,30.00930288,611d33f0b3342b0f5fefbb1d,611e07ecdcc96256ae8d5b80,611e663aec5d416aef29f378,
,,,,space,0.4263,,0,53,53,148,1,X, , , , ,,2000,2,611d33f0b3342b0f5fefbb1d,001,2021-08-19_15h10.27.597,natb3,2021.2.3,Win32,30.00930288,611d33f0b3342b0f5fefbb1d,611e07ecdcc96256ae8d5b80,611e663aec5d416aef29f378,
,,,,,,,0,54,54,166,1,X, , , , ,,2000,2,611d33f0b3342b0f5fefbb1d,001,2021-08-19_15h10.27.597,natb3,2021.2.3,Win32,30.00930288,611d33f0b3342b0f5fefbb1d,611e07ecdcc96256ae8d5b80,611e663aec5d416aef29f378,
,,,,space,0.5028,,0,55,55,237,1,S, , , , ,space,1500,1.5,611d33f0b3342b0f5fefbb1d,001,2021-08-19_15h10.27.597,natb3,2021.2.3,Win32,30.00930288,611d33f0b3342b0f5fefbb1d,611e07ecdcc96256ae8d5b80,611e663aec5d416aef29f378,
,,,,space,0.4964,,0,56,56,212,1,Q, , , , ,space,2500,2.5,611d33f0b3342b0f5fefbb1d,001,2021-08-19_15h10.27.597,natb3,2021.2.3,Win32,30.00930288,611d33f0b3342b0f5fefbb1d,611e07ecdcc96256ae8d5b80,611e663aec5d416aef29f378,
,,,,,,,0,57,57,175,1,X,7, ,4,2,,1500,1.5,611d33f0b3342b0f5fefbb1d,001,2021-08-19_15h10.27.597,natb3,2021.2.3,Win32,30.00930288,611d33f0b3342b0f5fefbb1d,611e07ecdcc96256ae8d5b80,611e663aec5d416aef29f378,
,,,,space,0.5616,,0,58,58,201,1,K, , , , ,space,1500,1.5,611d33f0b3342b0f5fefbb1d,001,2021-08-19_15h10.27.597,natb3,2021.2.3,Win32,30.00930288,611d33f0b3342b0f5fefbb1d,611e07ecdcc96256ae8d5b80,611e663aec5d416aef29f378,
,,,,space,0.4939,,0,59,59,57,1,K, , , , ,space,2500,2.5,611d33f0b3342b0f5fefbb1d,001,2021-08-19_15h10.27.597,natb3,2021.2.3,Win32,30.00930288,611d33f0b3342b0f5fefbb1d,611e07ecdcc96256ae8d5b80,611e663aec5d416aef29f378,
,,,,space,0.6832,,0,60,60,332,1,U, , , , ,space,2000,2,611d33f0b3342b0f5fefbb1d,001,2021-08-19_15h10.27.597,natb3,2021.2.3,Win32,30.00930288,611d33f0b3342b0f5fefbb1d,611e07ecdcc96256ae8d5b80,611e663aec5d416aef29f378,
,,,,space,0.6924,,0,61,61,322,1,X, , ,1,6,,2000,2,611d33f0b3342b0f5fefbb1d,001,2021-08-19_15h10.27.597,natb3,2021.2.3,Win32,30.00930288,611d33f0b3342b0f5fefbb1d,611e07ecdcc96256ae8d5b80,611e663aec5d416aef29f378,
,,,,space,0.9294,,0,62,62,192,1,A, , , , ,space,2000,2,611d33f0b3342b0f5fefbb1d,001,2021-08-19_15h10.27.597,natb3,2021.2.3,Win32,30.00930288,611d33f0b3342b0f5fefbb1d,611e07ecdcc96256ae8d5b80,611e663aec5d416aef29f378,
,,,,space,0.5753,,0,63,63,254,1,M, , , , ,space,1500,1.5,611d33f0b3342b0f5fefbb1d,001,2021-08-19_15h10.27.597,natb3,2021.2.3,Win32,30.00930288,611d33f0b3342b0f5fefbb1d,611e07ecdcc96256ae8d5b80,611e663aec5d416aef29f378,
,,,,,,,0,64,64,69,1,X, , , , ,,1500,1.5,611d33f0b3342b0f5fefbb1d,001,2021-08-19_15h10.27.597,natb3,2021.2.3,Win32,30.00930288,611d33f0b3342b0f5fefbb1d,611e07ecdcc96256ae8d5b80,611e663aec5d416aef29f378,
,,,,,,,0,65,65,7,1,X, , , , ,,1500,1.5,611d33f0b3342b0f5fefbb1d,001,2021-08-19_15h10.27.597,natb3,2021.2.3,Win32,30.00930288,611d33f0b3342b0f5fefbb1d,611e07ecdcc96256ae8d5b80,611e663aec5d416aef29f378,
,,,,space,0.4992,,0,66,66,156,1,P, , , , ,space,1500,1.5,611d33f0b3342b0f5fefbb1d,001,2021-08-19_15h10.27.597,natb3,2021.2.3,Win32,30.00930288,611d33f0b3342b0f5fefbb1d,611e07ecdcc96256ae8d5b80,611e663aec5d416aef29f378,
,,,,,,,0,67,67,211,1,X, , , , ,,2500,2.5,611d33f0b3342b0f5fefbb1d,001,2021-08-19_15h10.27.597,natb3,2021.2.3,Win32,30.00930288,611d33f0b3342b0f5fefbb1d,611e07ecdcc96256ae8d5b80,611e663aec5d416aef29f378,
,,,,,,,0,68,68,142,1,N, , , , ,space,2500,2.5,611d33f0b3342b0f5fefbb1d,001,2021-08-19_15h10.27.597,natb3,2021.2.3,Win32,30.00930288,611d33f0b3342b0f5fefbb1d,611e07ecdcc96256ae8d5b80,611e663aec5d416aef29f378,
,,,,space,0.6133,,0,69,69,274,1,F, , , , ,space,2000,2,611d33f0b3342b0f5fefbb1d,001,2021-08-19_15h10.27.597,natb3,2021.2.3,Win32,30.00930288,611d33f0b3342b0f5fefbb1d,611e07ecdcc96256ae8d5b80,611e663aec5d416aef29f378,
,,,,space,0.7981,,0,70,70,234,1,P, , , , ,space,2000,2,611d33f0b3342b0f5fefbb1d,001,2021-08-19_15h10.27.597,natb3,2021.2.3,Win32,30.00930288,611d33f0b3342b0f5fefbb1d,611e07ecdcc96256ae8d5b80,611e663aec5d416aef29f378,
,,,,,,,0,71,71,179,1,X, ,9, ,2,,1500,1.5,611d33f0b3342b0f5fefbb1d,001,2021-08-19_15h10.27.597,natb3,2021.2.3,Win32,30.00930288,611d33f0b3342b0f5fefbb1d,611e07ecdcc96256ae8d5b80,611e663aec5d416aef29f378,
,,,,space,0.6673,,0,72,72,30,1,N, , , , ,space,2500,2.5,611d33f0b3342b0f5fefbb1d,001,2021-08-19_15h10.27.597,natb3,2021.2.3,Win32,30.00930288,611d33f0b3342b0f5fefbb1d,611e07ecdcc96256ae8d5b80,611e663aec5d416aef29f378,
,,,,space,0.9491,,0,73,73,70,1,E, , , , ,space,2500,2.5,611d33f0b3342b0f5fefbb1d,001,2021-08-19_15h10.27.597,natb3,2021.2.3,Win32,30.00930288,611d33f0b3342b0f5fefbb1d,611e07ecdcc96256ae8d5b80,611e663aec5d416aef29f378,
,,,,space,0.7629,,0,74,74,289,1,Q, , , , ,space,2000,2,611d33f0b3342b0f5fefbb1d,001,2021-08-19_15h10.27.597,natb3,2021.2.3,Win32,30.00930288,611d33f0b3342b0f5fefbb1d,611e07ecdcc96256ae8d5b80,611e663aec5d416aef29f378,
,,,,,,,0,75,75,171,1,X, , , , ,,1500,1.5,611d33f0b3342b0f5fefbb1d,001,2021-08-19_15h10.27.597,natb3,2021.2.3,Win32,30.00930288,611d33f0b3342b0f5fefbb1d,611e07ecdcc96256ae8d5b80,611e663aec5d416aef29f378,
,,,,space,0.4851,,0,76,76,117,1,T, , , , ,space,2500,2.5,611d33f0b3342b0f5fefbb1d,001,2021-08-19_15h10.27.597,natb3,2021.2.3,Win32,30.00930288,611d33f0b3342b0f5fefbb1d,611e07ecdcc96256ae8d5b80,611e663aec5d416aef29f378,
,,,,space,0.4973,,0,77,77,285,1,B, , , , ,space,1500,1.5,611d33f0b3342b0f5fefbb1d,001,2021-08-19_15h10.27.597,natb3,2021.2.3,Win32,30.00930288,611d33f0b3342b0f5fefbb1d,611e07ecdcc96256ae8d5b80,611e663aec5d416aef29f378,
,,,,space,0.6154,,0,78,78,265,1,I, , , , ,space,2000,2,611d33f0b3342b0f5fefbb1d,001,2021-08-19_15h10.27.597,natb3,2021.2.3,Win32,30.00930288,611d33f0b3342b0f5fefbb1d,611e07ecdcc96256ae8d5b80,611e663aec5d416aef29f378,
,,,,space,0.4912,,0,79,79,235,1,A, , , , ,space,1500,1.5,611d33f0b3342b0f5fefbb1d,001,2021-08-19_15h10.27.597,natb3,2021.2.3,Win32,30.00930288,611d33f0b3342b0f5fefbb1d,611e07ecdcc96256ae8d5b80,611e663aec5d416aef29f378,
,,,,space,0.549,,0,80,80,1,1,W, , , , ,space,2000,2,611d33f0b3342b0f5fefbb1d,001,2021-08-19_15h10.27.597,natb3,2021.2.3,Win32,30.00930288,611d33f0b3342b0f5fefbb1d,611e07ecdcc96256ae8d5b80,611e663aec5d416aef29f378,
,,,,space,0.4965,,0,81,81,215,1,E, , , , ,space,2500,2.5,611d33f0b3342b0f5fefbb1d,001,2021-08-19_15h10.27.597,natb3,2021.2.3,Win32,30.00930288,611d33f0b3342b0f5fefbb1d,611e07ecdcc96256ae8d5b80,611e663aec5d416aef29f378,
,,,,space,0.3925,,0,82,82,160,1,D, , , , ,space,1500,1.5,611d33f0b3342b0f5fefbb1d,001,2021-08-19_15h10.27.597,natb3,2021.2.3,Win32,30.00930288,611d33f0b3342b0f5fefbb1d,611e07ecdcc96256ae8d5b80,611e663aec5d416aef29f378,
,,,,,,,0,83,83,263,1,X,4, ,6, ,,1500,1.5,611d33f0b3342b0f5fefbb1d,001,2021-08-19_15h10.27.597,natb3,2021.2.3,Win32,30.00930288,611d33f0b3342b0f5fefbb1d,611e07ecdcc96256ae8d5b80,611e663aec5d416aef29f378,
,,,,space,0.4481,,0,84,84,283,1,C, , , , ,space,1500,1.5,611d33f0b3342b0f5fefbb1d,001,2021-08-19_15h10.27.597,natb3,2021.2.3,Win32,30.00930288,611d33f0b3342b0f5fefbb1d,611e07ecdcc96256ae8d5b80,611e663aec5d416aef29f378,
,,,,space,0.4437,,0,85,85,37,1,E, , , , ,space,2500,2.5,611d33f0b3342b0f5fefbb1d,001,2021-08-19_15h10.27.597,natb3,2021.2.3,Win32,30.00930288,611d33f0b3342b0f5fefbb1d,611e07ecdcc96256ae8d5b80,611e663aec5d416aef29f378,
,,,,space,0.4074,,0,86,86,258,1,E, , , , ,space,1500,1.5,611d33f0b3342b0f5fefbb1d,001,2021-08-19_15h10.27.597,natb3,2021.2.3,Win32,30.00930288,611d33f0b3342b0f5fefbb1d,611e07ecdcc96256ae8d5b80,611e663aec5d416aef29f378,
,,,,space,0.4013,,0,87,87,293,1,R, , , , ,space,2500,2.5,611d33f0b3342b0f5fefbb1d,001,2021-08-19_15h10.27.597,natb3,2021.2.3,Win32,30.00930288,611d33f0b3342b0f5fefbb1d,611e07ecdcc96256ae8d5b80,611e663aec5d416aef29f378,
,,,,,,,0,88,88,145,1,X, , , , ,,2000,2,611d33f0b3342b0f5fefbb1d,001,2021-08-19_15h10.27.597,natb3,2021.2.3,Win32,30.00930288,611d33f0b3342b0f5fefbb1d,611e07ecdcc96256ae8d5b80,611e663aec5d416aef29f378,
,,,,space,0.4973,,0,89,89,29,1,B, , , , ,space,1500,1.5,611d33f0b3342b0f5fefbb1d,001,2021-08-19_15h10.27.597,natb3,2021.2.3,Win32,30.00930288,611d33f0b3342b0f5fefbb1d,611e07ecdcc96256ae8d5b80,611e663aec5d416aef29f378,
,,,,space,0.496,,0,90,90,120,1,U, , , , ,space,1500,1.5,611d33f0b3342b0f5fefbb1d,001,2021-08-19_15h10.27.597,natb3,2021.2.3,Win32,30.00930288,611d33f0b3342b0f5fefbb1d,611e07ecdcc96256ae8d5b80,611e663aec5d416aef29f378,
,,,,space,0.4417,,0,91,91,134,1,J, , , , ,space,2000,2,611d33f0b3342b0f5fefbb1d,001,2021-08-19_15h10.27.597,natb3,2021.2.3,Win32,30.00930288,611d33f0b3342b0f5fefbb1d,611e07ecdcc96256ae8d5b80,611e663aec5d416aef29f378,
,,,,space,0.4682,,0,92,92,154,1,I, , , , ,space,2500,2.5,611d33f0b3342b0f5fefbb1d,001,2021-08-19_15h10.27.597,natb3,2021.2.3,Win32,30.00930288,611d33f0b3342b0f5fefbb1d,611e07ecdcc96256ae8d5b80,611e663aec5d416aef29f378,
,,,,space,0.5478,,0,93,93,312,1,K, , , , ,space,2000,2,611d33f0b3342b0f5fefbb1d,001,2021-08-19_15h10.27.597,natb3,2021.2.3,Win32,30.00930288,611d33f0b3342b0f5fefbb1d,611e07ecdcc96256ae8d5b80,611e663aec5d416aef29f378,
,,,,space,0.4998,,0,94,94,193,1,S, , , , ,space,2500,2.5,611d33f0b3342b0f5fefbb1d,001,2021-08-19_15h10.27.597,natb3,2021.2.3,Win32,30.00930288,611d33f0b3342b0f5fefbb1d,611e07ecdcc96256ae8d5b80,611e663aec5d416aef29f378,
,,,,space,0.5015,,0,95,95,110,1,I, , , , ,space,1500,1.5,611d33f0b3342b0f5fefbb1d,001,2021-08-19_15h10.27.597,natb3,2021.2.3,Win32,30.00930288,611d33f0b3342b0f5fefbb1d,611e07ecdcc96256ae8d5b80,611e663aec5d416aef29f378,
,,,,space,0.4876,,0,96,96,163,1,G, , , , ,space,2500,2.5,611d33f0b3342b0f5fefbb1d,001,2021-08-19_15h10.27.597,natb3,2021.2.3,Win32,30.00930288,611d33f0b3342b0f5fefbb1d,611e07ecdcc96256ae8d5b80,611e663aec5d416aef29f378,
,,,,space,0.4045,,0,97,97,208,1,B, , , , ,space,1500,1.5,611d33f0b3342b0f5fefbb1d,001,2021-08-19_15h10.27.597,natb3,2021.2.3,Win32,30.00930288,611d33f0b3342b0f5fefbb1d,611e07ecdcc96256ae8d5b80,611e663aec5d416aef29f378,
,,,,space,0.4502,,0,98,98,177,1,M, , , , ,space,2500,2.5,611d33f0b3342b0f5fefbb1d,001,2021-08-19_15h10.27.597,natb3,2021.2.3,Win32,30.00930288,611d33f0b3342b0f5fefbb1d,611e07ecdcc96256ae8d5b80,611e663aec5d416aef29f378,
,,,,,,,0,99,99,153,1,X,4,7, ,6,,2000,2,611d33f0b3342b0f5fefbb1d,001,2021-08-19_15h10.27.597,natb3,2021.2.3,Win32,30.00930288,611d33f0b3342b0f5fefbb1d,611e07ecdcc96256ae8d5b80,611e663aec5d416aef29f378,
,,,,,,,0,100,100,23,1,X,1, ,5, ,,2000,2,611d33f0b3342b0f5fefbb1d,001,2021-08-19_15h10.27.597,natb3,2021.2.3,Win32,30.00930288,611d33f0b3342b0f5fefbb1d,611e07ecdcc96256ae8d5b80,611e663aec5d416aef29f378,
,,,,,,,0,101,101,203,1,X, , , , ,,2500,2.5,611d33f0b3342b0f5fefbb1d,001,2021-08-19_15h10.27.597,natb3,2021.2.3,Win32,30.00930288,611d33f0b3342b0f5fefbb1d,611e07ecdcc96256ae8d5b80,611e663aec5d416aef29f378,
,,,,space,0.4531,,0,102,102,232,1,O, , , , ,space,2500,2.5,611d33f0b3342b0f5fefbb1d,001,2021-08-19_15h10.27.597,natb3,2021.2.3,Win32,30.00930288,611d33f0b3342b0f5fefbb1d,611e07ecdcc96256ae8d5b80,611e663aec5d416aef29f378,
,,,,space,0.3957,,0,103,103,295,1,X,8,7,5, ,,2500,2.5,611d33f0b3342b0f5fefbb1d,001,2021-08-19_15h10.27.597,natb3,2021.2.3,Win32,30.00930288,611d33f0b3342b0f5fefbb1d,611e07ecdcc96256ae8d5b80,611e663aec5d416aef29f378,
,,,,space,0.5422,,0,104,104,150,1,T, , , , ,space,2500,2.5,611d33f0b3342b0f5fefbb1d,001,2021-08-19_15h10.27.597,natb3,2021.2.3,Win32,30.00930288,611d33f0b3342b0f5fefbb1d,611e07ecdcc96256ae8d5b80,611e663aec5d416aef29f378,
,,,,space,0.4924,,0,105,105,119,1,Y, , , , ,space,2500,2.5,611d33f0b3342b0f5fefbb1d,001,2021-08-19_15h10.27.597,natb3,2021.2.3,Win32,30.00930288,611d33f0b3342b0f5fefbb1d,611e07ecdcc96256ae8d5b80,611e663aec5d416aef29f378,
,,,,space,0.4518,,0,106,106,288,1,M, , , , ,space,1500,1.5,611d33f0b3342b0f5fefbb1d,001,2021-08-19_15h10.27.597,natb3,2021.2.3,Win32,30.00930288,611d33f0b3342b0f5fefbb1d,611e07ecdcc96256ae8d5b80,611e663aec5d416aef29f378,
,,,,space,0.4324,,0,107,107,301,1,P, , , , ,space,1500,1.5,611d33f0b3342b0f5fefbb1d,001,2021-08-19_15h10.27.597,natb3,2021.2.3,Win32,30.00930288,611d33f0b3342b0f5fefbb1d,611e07ecdcc96256ae8d5b80,611e663aec5d416aef29f378,
,,,,space,0.4872,,0,108,108,219,1,Y, , , , ,space,2000,2,611d33f0b3342b0f5fefbb1d,001,2021-08-19_15h10.27.597,natb3,2021.2.3,Win32,30.00930288,611d33f0b3342b0f5fefbb1d,611e07ecdcc96256ae8d5b80,611e663aec5d416aef29f378,
,,,,space,0.5152,,0,109,109,224,1,W, , , , ,space,1500,1.5,611d33f0b3342b0f5fefbb1d,001,2021-08-19_15h10.27.597,natb3,2021.2.3,Win32,30.00930288,611d33f0b3342b0f5fefbb1d,611e07ecdcc96256ae8d5b80,611e663aec5d416aef29f378,
,,,,,,,0,110,110,243,1,X, , , , ,,2500,2.5,611d33f0b3342b0f5fefbb1d,001,2021-08-19_15h10.27.597,natb3,2021.2.3,Win32,30.00930288,611d33f0b3342b0f5fefbb1d,611e07ecdcc96256ae8d5b80,611e663aec5d416aef29f378,
,,,,,,,0,111,111,213,1,X, , , , ,,2500,2.5,611d33f0b3342b0f5fefbb1d,001,2021-08-19_15h10.27.597,natb3,2021.2.3,Win32,30.00930288,611d33f0b3342b0f5fefbb1d,611e07ecdcc96256ae8d5b80,611e663aec5d416aef29f378,
,,,,space,0.6064,,0,112,112,228,1,Y, , , , ,space,2000,2,611d33f0b3342b0f5fefbb1d,001,2021-08-19_15h10.27.597,natb3,2021.2.3,Win32,30.00930288,611d33f0b3342b0f5fefbb1d,611e07ecdcc96256ae8d5b80,611e663aec5d416aef29f378,
,,,,space,0.5811,,0,113,113,300,1,O, , , , ,space,2500,2.5,611d33f0b3342b0f5fefbb1d,001,2021-08-19_15h10.27.597,natb3,2021.2.3,Win32,30.00930288,611d33f0b3342b0f5fefbb1d,611e07ecdcc96256ae8d5b80,611e663aec5d416aef29f378,
,,,,space,0.5061,,0,114,114,64,1,N, , , , ,space,2000,2,611d33f0b3342b0f5fefbb1d,001,2021-08-19_15h10.27.597,natb3,2021.2.3,Win32,30.00930288,611d33f0b3342b0f5fefbb1d,611e07ecdcc96256ae8d5b80,611e663aec5d416aef29f378,
,,,,space,0.4972,,0,115,115,161,1,F, , , , ,space,1500,1.5,611d33f0b3342b0f5fefbb1d,001,2021-08-19_15h10.27.597,natb3,2021.2.3,Win32,30.00930288,611d33f0b3342b0f5fefbb1d,611e07ecdcc96256ae8d5b80,611e663aec5d416aef29f378,
,,,,,,,0,116,116,35,1,X, , , , ,,2500,2.5,611d33f0b3342b0f5fefbb1d,001,2021-08-19_15h10.27.597,natb3,2021.2.3,Win32,30.00930288,611d33f0b3342b0f5fefbb1d,611e07ecdcc96256ae8d5b80,611e663aec5d416aef29f378,
,,,,space,0.5439,,0,117,117,240,1,F, , , , ,space,2500,2.5,611d33f0b3342b0f5fefbb1d,001,2021-08-19_15h10.27.597,natb3,2021.2.3,Win32,30.00930288,611d33f0b3342b0f5fefbb1d,611e07ecdcc96256ae8d5b80,611e663aec5d416aef29f378,
,,,,space,0.8161,,0,118,118,308,1,G, , , , ,space,1500,1.5,611d33f0b3342b0f5fefbb1d,001,2021-08-19_15h10.27.597,natb3,2021.2.3,Win32,30.00930288,611d33f0b3342b0f5fefbb1d,611e07ecdcc96256ae8d5b80,611e663aec5d416aef29f378,
,,,,,,,0,119,119,273,1,X, , , , ,,2000,2,611d33f0b3342b0f5fefbb1d,001,2021-08-19_15h10.27.597,natb3,2021.2.3,Win32,30.00930288,611d33f0b3342b0f5fefbb1d,611e07ecdcc96256ae8d5b80,611e663aec5d416aef29f378,
,,,,,,,0,120,120,218,1,X,1,3, ,8,,1500,1.5,611d33f0b3342b0f5fefbb1d,001,2021-08-19_15h10.27.597,natb3,2021.2.3,Win32,30.00930288,611d33f0b3342b0f5fefbb1d,611e07ecdcc96256ae8d5b80,611e663aec5d416aef29f378,
,,,,,,,0,121,121,158,1,X, , , , ,,1500,1.5,611d33f0b3342b0f5fefbb1d,001,2021-08-19_15h10.27.597,natb3,2021.2.3,Win32,30.00930288,611d33f0b3342b0f5fefbb1d,611e07ecdcc96256ae8d5b80,611e663aec5d416aef29f378,
,,,,space,0.5848,,0,122,122,114,1,E, , , , ,space,2000,2,611d33f0b3342b0f5fefbb1d,001,2021-08-19_15h10.27.597,natb3,2021.2.3,Win32,30.00930288,611d33f0b3342b0f5fefbb1d,611e07ecdcc96256ae8d5b80,611e663aec5d416aef29f378,
,,,,space,0.5211,,0,123,123,172,1,C, , , , ,space,1500,1.5,611d33f0b3342b0f5fefbb1d,001,2021-08-19_15h10.27.597,natb3,2021.2.3,Win32,30.00930288,611d33f0b3342b0f5fefbb1d,611e07ecdcc96256ae8d5b80,611e663aec5d416aef29f378,
,,,,,,,0,124,124,93,1,X,5, ,7, ,,2500,2.5,611d33f0b3342b0f5fefbb1d,001,2021-08-19_15h10.27.597,natb3,2021.2.3,Win32,30.00930288,611d33f0b3342b0f5fefbb1d,611e07ecdcc96256ae8d5b80,611e663aec5d416aef29f378,
,,,,space,0.7284,,0,125,125,223,1,Q, , , , ,space,2000,2,611d33f0b3342b0f5fefbb1d,001,2021-08-19_15h10.27.597,natb3,2021.2.3,Win32,30.00930288,611d33f0b3342b0f5fefbb1d,611e07ecdcc96256ae8d5b80,611e663aec5d416aef29f378,
,,,,,,,0,126,126,116,1,X, , , , ,,2000,2,611d33f0b3342b0f5fefbb1d,001,2021-08-19_15h10.27.597,natb3,2021.2.3,Win32,30.00930288,611d33f0b3342b0f5fefbb1d,611e07ecdcc96256ae8d5b80,611e663aec5d416aef29f378,
,,,,space,0.4989,,0,127,127,205,1,C, , , , ,space,2000,2,611d33f0b3342b0f5fefbb1d,001,2021-08-19_15h10.27.597,natb3,2021.2.3,Win32,30.00930288,611d33f0b3342b0f5fefbb1d,611e07ecdcc96256ae8d5b80,611e663aec5d416aef29f378,
,,,,,,,0,128,128,162,1,X,1,6, ,2,,1500,1.5,611d33f0b3342b0f5fefbb1d,001,2021-08-19_15h10.27.597,natb3,2021.2.3,Win32,30.00930288,611d33f0b3342b0f5fefbb1d,611e07ecdcc96256ae8d5b80,611e663aec5d416aef29f378,
,,,,space,0.5475,,0,129,129,165,1,J, , , , ,space,2500,2.5,611d33f0b3342b0f5fefbb1d,001,2021-08-19_15h10.27.597,natb3,2021.2.3,Win32,30.00930288,611d33f0b3342b0f5fefbb1d,611e07ecdcc96256ae8d5b80,611e663aec5d416aef29f378,
,,,,space,0.5013,,0,130,130,306,1,D, , , , ,space,2000,2,611d33f0b3342b0f5fefbb1d,001,2021-08-19_15h10.27.597,natb3,2021.2.3,Win32,30.00930288,611d33f0b3342b0f5fefbb1d,611e07ecdcc96256ae8d5b80,611e663aec5d416aef29f378,
,,,,space,0.4963,,0,131,131,144,1,Q, , , , ,space,2500,2.5,611d33f0b3342b0f5fefbb1d,001,2021-08-19_15h10.27.597,natb3,2021.2.3,Win32,30.00930288,611d33f0b3342b0f5fefbb1d,611e07ecdcc96256ae8d5b80,611e663aec5d416aef29f378,
,,,,,,,0,132,132,74,1,X, ,4,3,2,,1500,1.5,611d33f0b3342b0f5fefbb1d,001,2021-08-19_15h10.27.597,natb3,2021.2.3,Win32,30.00930288,611d33f0b3342b0f5fefbb1d,611e07ecdcc96256ae8d5b80,611e663aec5d416aef29f378,
,,,,,,,0,133,133,195,1,X, , , , ,,1500,1.5,611d33f0b3342b0f5fefbb1d,001,2021-08-19_15h10.27.597,natb3,2021.2.3,Win32,30.00930288,611d33f0b3342b0f5fefbb1d,611e07ecdcc96256ae8d5b80,611e663aec5d416aef29f378,
,,,,space,0.6328,,0,134,134,316,1,Z, , , , ,space,1500,1.5,611d33f0b3342b0f5fefbb1d,001,2021-08-19_15h10.27.597,natb3,2021.2.3,Win32,30.00930288,611d33f0b3342b0f5fefbb1d,611e07ecdcc96256ae8d5b80,611e663aec5d416aef29f378,
,,,,space,0.4427,,0,135,135,115,1,R, , , , ,space,1500,1.5,611d33f0b3342b0f5fefbb1d,001,2021-08-19_15h10.27.597,natb3,2021.2.3,Win32,30.00930288,611d33f0b3342b0f5fefbb1d,611e07ecdcc96256ae8d5b80,611e663aec5d416aef29f378,
,,,,,,,0,136,136,182,1,X, , , , ,,1500,1.5,611d33f0b3342b0f5fefbb1d,001,2021-08-19_15h10.27.597,natb3,2021.2.3,Win32,30.00930288,611d33f0b3342b0f5fefbb1d,611e07ecdcc96256ae8d5b80,611e663aec5d416aef29f378,
,,,,space,0.5336,,0,137,137,42,1,U, , , , ,space,1500,1.5,611d33f0b3342b0f5fefbb1d,001,2021-08-19_15h10.27.597,natb3,2021.2.3,Win32,30.00930288,611d33f0b3342b0f5fefbb1d,611e07ecdcc96256ae8d5b80,611e663aec5d416aef29f378,
,,,,space,0.5867,,0,138,138,41,1,Y, , , , ,space,2500,2.5,611d33f0b3342b0f5fefbb1d,001,2021-08-19_15h10.27.597,natb3,2021.2.3,Win32,30.00930288,611d33f0b3342b0f5fefbb1d,611e07ecdcc96256ae8d5b80,611e663aec5d416aef29f378,
,,,,space,0.5683,,0,139,139,319,1,V, , , , ,space,2000,2,611d33f0b3342b0f5fefbb1d,001,2021-08-19_15h10.27.597,natb3,2021.2.3,Win32,30.00930288,611d33f0b3342b0f5fefbb1d,611e07ecdcc96256ae8d5b80,611e663aec5d416aef29f378,
,,,,space,0.5821,,0,140,140,106,1,T, , , , ,space,1500,1.5,611d33f0b3342b0f5fefbb1d,001,2021-08-19_15h10.27.597,natb3,2021.2.3,Win32,30.00930288,611d33f0b3342b0f5fefbb1d,611e07ecdcc96256ae8d5b80,611e663aec5d416aef29f378,
,,,,space,0.4318,,0,141,141,227,1,T, , , , ,space,1500,1.5,611d33f0b3342b0f5fefbb1d,001,2021-08-19_15h10.27.597,natb3,2021.2.3,Win32,30.00930288,611d33f0b3342b0f5fefbb1d,611e07ecdcc96256ae8d5b80,611e663aec5d416aef29f378,
,,,,space,0.4846,,0,142,142,214,1,W, , , , ,space,2000,2,611d33f0b3342b0f5fefbb1d,001,2021-08-19_15h10.27.597,natb3,2021.2.3,Win32,30.00930288,611d33f0b3342b0f5fefbb1d,611e07ecdcc96256ae8d5b80,611e663aec5d416aef29f378,
,,,,,,,0,143,143,118,1,X, , , , ,,2000,2,611d33f0b3342b0f5fefbb1d,001,2021-08-19_15h10.27.597,natb3,2021.2.3,Win32,30.00930288,611d33f0b3342b0f5fefbb1d,611e07ecdcc96256ae8d5b80,611e663aec5d416aef29f378,
,,,,space,0.6006,,0,144,144,146,1,W, , , , ,space,1500,1.5,611d33f0b3342b0f5fefbb1d,001,2021-08-19_15h10.27.597,natb3,2021.2.3,Win32,30.00930288,611d33f0b3342b0f5fefbb1d,611e07ecdcc96256ae8d5b80,611e663aec5d416aef29f378,
,,,,space,0.5358,,0,145,145,139,1,V, , , , ,space,2000,2,611d33f0b3342b0f5fefbb1d,001,2021-08-19_15h10.27.597,natb3,2021.2.3,Win32,30.00930288,611d33f0b3342b0f5fefbb1d,611e07ecdcc96256ae8d5b80,611e663aec5d416aef29f378,
,,,,,,,0,146,146,18,1,X, ,2,5,8,,2500,2.5,611d33f0b3342b0f5fefbb1d,001,2021-08-19_15h10.27.597,natb3,2021.2.3,Win32,30.00930288,611d33f0b3342b0f5fefbb1d,611e07ecdcc96256ae8d5b80,611e663aec5d416aef29f378,
,,,,space,0.6396,,0,147,147,238,1,D, , , , ,space,1500,1.5,611d33f0b3342b0f5fefbb1d,001,2021-08-19_15h10.27.597,natb3,2021.2.3,Win32,30.00930288,611d33f0b3342b0f5fefbb1d,611e07ecdcc96256ae8d5b80,611e663aec5d416aef29f378,
,,,,space,0.5268,,0,148,148,246,1,L, , , , ,space,2500,2.5,611d33f0b3342b0f5fefbb1d,001,2021-08-19_15h10.27.597,natb3,2021.2.3,Win32,30.00930288,611d33f0b3342b0f5fefbb1d,611e07ecdcc96256ae8d5b80,611e663aec5d416aef29f378,
,,,,space,0.5281,,0,149,149,56,1,J, , , , ,space,1500,1.5,611d33f0b3342b0f5fefbb1d,001,2021-08-19_15h10.27.597,natb3,2021.2.3,Win32,30.00930288,611d33f0b3342b0f5fefbb1d,611e07ecdcc96256ae8d5b80,611e663aec5d416aef29f378,
,,,,space,0.581,,0,150,150,221,1,I, , , , ,space,2500,2.5,611d33f0b3342b0f5fefbb1d,001,2021-08-19_15h10.27.597,natb3,2021.2.3,Win32,30.00930288,611d33f0b3342b0f5fefbb1d,611e07ecdcc96256ae8d5b80,611e663aec5d416aef29f378,
,,,,space,0.5786,,0,151,151,59,1,Z, , , , ,space,2000,2,611d33f0b3342b0f5fefbb1d,001,2021-08-19_15h10.27.597,natb3,2021.2.3,Win32,30.00930288,611d33f0b3342b0f5fefbb1d,611e07ecdcc96256ae8d5b80,611e663aec5d416aef29f378,
,,,,space,0.4499,,0,152,152,50,1,D, , , , ,space,1500,1.5,611d33f0b3342b0f5fefbb1d,001,2021-08-19_15h10.27.597,natb3,2021.2.3,Win32,30.00930288,611d33f0b3342b0f5fefbb1d,611e07ecdcc96256ae8d5b80,611e663aec5d416aef29f378,
,,,,space,0.3921,,0,153,153,174,1,B, , , , ,space,2500,2.5,611d33f0b3342b0f5fefbb1d,001,2021-08-19_15h10.27.597,natb3,2021.2.3,Win32,30.00930288,611d33f0b3342b0f5fefbb1d,611e07ecdcc96256ae8d5b80,611e663aec5d416aef29f378,
,,,,,,,0,154,154,329,1,X,3,4, ,2,,2500,2.5,611d33f0b3342b0f5fefbb1d,001,2021-08-19_15h10.27.597,natb3,2021.2.3,Win32,30.00930288,611d33f0b3342b0f5fefbb1d,611e07ecdcc96256ae8d5b80,611e663aec5d416aef29f378,
,,,,,,,0,155,155,15,1,X, , , , ,,1500,1.5,611d33f0b3342b0f5fefbb1d,001,2021-08-19_15h10.27.597,natb3,2021.2.3,Win32,30.00930288,611d33f0b3342b0f5fefbb1d,611e07ecdcc96256ae8d5b80,611e663aec5d416aef29f378,
,,,,space,0.6331,,0,156,156,247,1,Z, , , , ,space,1500,1.5,611d33f0b3342b0f5fefbb1d,001,2021-08-19_15h10.27.597,natb3,2021.2.3,Win32,30.00930288,611d33f0b3342b0f5fefbb1d,611e07ecdcc96256ae8d5b80,611e663aec5d416aef29f378,
,,,,space,0.4856,,0,157,157,17,1,F, , , , ,space,2500,2.5,611d33f0b3342b0f5fefbb1d,001,2021-08-19_15h10.27.597,natb3,2021.2.3,Win32,30.00930288,611d33f0b3342b0f5fefbb1d,611e07ecdcc96256ae8d5b80,611e663aec5d416aef29f378,
,,,,,,,0,158,158,277,1,X,8,5, ,2,,2000,2,611d33f0b3342b0f5fefbb1d,001,2021-08-19_15h10.27.597,natb3,2021.2.3,Win32,30.00930288,611d33f0b3342b0f5fefbb1d,611e07ecdcc96256ae8d5b80,611e663aec5d416aef29f378,
,,,,space,0.5734,,0,159,159,249,1,C, , , , ,space,2000,2,611d33f0b3342b0f5fefbb1d,001,2021-08-19_15h10.27.597,natb3,2021.2.3,Win32,30.00930288,611d33f0b3342b0f5fefbb1d,611e07ecdcc96256ae8d5b80,611e663aec5d416aef29f378,
,,,,space,0.4427,,0,160,160,101,1,Q, , , , ,space,2500,2.5,611d33f0b3342b0f5fefbb1d,001,2021-08-19_15h10.27.597,natb3,2021.2.3,Win32,30.00930288,611d33f0b3342b0f5fefbb1d,611e07ecdcc96256ae8d5b80,611e663aec5d416aef29f378,
,,,,space,0.4809,,0,161,161,97,1,B, , , , ,space,2500,2.5,611d33f0b3342b0f5fefbb1d,001,2021-08-19_15h10.27.597,natb3,2021.2.3,Win32,30.00930288,611d33f0b3342b0f5fefbb1d,611e07ecdcc96256ae8d5b80,611e663aec5d416aef29f378,
,,,,space,0.4261,,0,162,162,185,1,Y, , , , ,space,2500,2.5,611d33f0b3342b0f5fefbb1d,001,2021-08-19_15h10.27.597,natb3,2021.2.3,Win32,30.00930288,611d33f0b3342b0f5fefbb1d,611e07ecdcc96256ae8d5b80,611e663aec5d416aef29f378,
,,,,space,0.5775,,0,163,163,128,1,D, , , , ,space,2500,2.5,611d33f0b3342b0f5fefbb1d,001,2021-08-19_15h10.27.597,natb3,2021.2.3,Win32,30.00930288,611d33f0b3342b0f5fefbb1d,611e07ecdcc96256ae8d5b80,611e663aec5d416aef29f378,
,,,,space,0.4623,,0,164,164,206,1,V, , , , ,space,2000,2,611d33f0b3342b0f5fefbb1d,001,2021-08-19_15h10.27.597,natb3,2021.2.3,Win32,30.00930288,611d33f0b3342b0f5fefbb1d,611e07ecdcc96256ae8d5b80,611e663aec5d416aef29f378,
,,,,space,0.4281,,0,165,165,180,1,W, , , , ,space,2000,2,611d33f0b3342b0f5fefbb1d,001,2021-08-19_15h10.27.597,natb3,2021.2.3,Win32,30.00930288,611d33f0b3342b0f5fefbb1d,611e07ecdcc96256ae8d5b80,611e663aec5d416aef29f378,
,,,,space,0.4937,,0,166,166,198,1,H, , , , ,space,2500,2.5,611d33f0b3342b0f5fefbb1d,001,2021-08-19_15h10.27.597,natb3,2021.2.3,Win32,30.00930288,611d33f0b3342b0f5fefbb1d,611e07ecdcc96256ae8d5b80,611e663aec5d416aef29f378,
,,,,space,0.4868,space,0,167,167,124,1,P, , , , ,space,2000,2,611d33f0b3342b0f5fefbb1d,001,2021-08-19_15h10.27.597,natb3,2021.2.3,Win32,30.00930288,611d33f0b3342b0f5fefbb1d,611e07ecdcc96256ae8d5b80,611e663aec5d416aef29f378,12.5988
,,,,space,0.6939,,0,168,168,11,1,P, , , , ,space,2500,2.5,611d33f0b3342b0f5fefbb1d,001,2021-08-19_15h10.27.597,natb3,2021.2.3,Win32,30.00930288,611d33f0b3342b0f5fefbb1d,611e07ecdcc96256ae8d5b80,611e663aec5d416aef29f378,
,,,,,,,0,169,169,259,1,X,8, , ,3,,2500,2.5,611d33f0b3342b0f5fefbb1d,001,2021-08-19_15h10.27.597,natb3,2021.2.3,Win32,30.00930288,611d33f0b3342b0f5fefbb1d,611e07ecdcc96256ae8d5b80,611e663aec5d416aef29f378,
,,,,space,0.493,,0,170,170,244,1,J, , , , ,space,1500,1.5,611d33f0b3342b0f5fefbb1d,001,2021-08-19_15h10.27.597,natb3,2021.2.3,Win32,30.00930288,611d33f0b3342b0f5fefbb1d,611e07ecdcc96256ae8d5b80,611e663aec5d416aef29f378,
,,,,,,,0,171,171,239,1,X, , , , ,,2000,2,611d33f0b3342b0f5fefbb1d,001,2021-08-19_15h10.27.597,natb3,2021.2.3,Win32,30.00930288,611d33f0b3342b0f5fefbb1d,611e07ecdcc96256ae8d5b80,611e663aec5d416aef29f378,
,,,,space,0.3877,,0,172,172,157,1,A, , , , ,space,2500,2.5,611d33f0b3342b0f5fefbb1d,001,2021-08-19_15h10.27.597,natb3,2021.2.3,Win32,30.00930288,611d33f0b3342b0f5fefbb1d,611e07ecdcc96256ae8d5b80,611e663aec5d416aef29f378,
,,,,space,0.4335,,0,173,173,66,1,X, ,4,7, ,,2000,2,611d33f0b3342b0f5fefbb1d,001,2021-08-19_15h10.27.597,natb3,2021.2.3,Win32,30.00930288,611d33f0b3342b0f5fefbb1d,611e07ecdcc96256ae8d5b80,611e663aec5d416aef29f378,
,,,,,,,0,174,174,315,1,X, , , , ,,2500,2.5,611d33f0b3342b0f5fefbb1d,001,2021-08-19_15h10.27.597,natb3,2021.2.3,Win32,30.00930288,611d33f0b3342b0f5fefbb1d,611e07ecdcc96256ae8d5b80,611e663aec5d416aef29f378,
,,,,space,0.5928,,0,175,175,32,1,M, , , , ,space,1500,1.5,611d33f0b3342b0f5fefbb1d,001,2021-08-19_15h10.27.597,natb3,2021.2.3,Win32,30.00930288,611d33f0b3342b0f5fefbb1d,611e07ecdcc96256ae8d5b80,611e663aec5d416aef29f378,
,,,,space,0.6183,,0,176,176,58,1,L, , , , ,space,2000,2,611d33f0b3342b0f5fefbb1d,001,2021-08-19_15h10.27.597,natb3,2021.2.3,Win32,30.00930288,611d33f0b3342b0f5fefbb1d,611e07ecdcc96256ae8d5b80,611e663aec5d416aef29f378,
,,,,space,0.4523,,0,177,177,62,1,V, , , , ,space,1500,1.5,611d33f0b3342b0f5fefbb1d,001,2021-08-19_15h10.27.597,natb3,2021.2.3,Win32,30.00930288,611d33f0b3342b0f5fefbb1d,611e07ecdcc96256ae8d5b80,611e663aec5d416aef29f378,
,,,,space,0.3868,,0,178,178,245,1,K, , , , ,space,2000,2,611d33f0b3342b0f5fefbb1d,001,2021-08-19_15h10.27.597,natb3,2021.2.3,Win32,30.00930288,611d33f0b3342b0f5fefbb1d,611e07ecdcc96256ae8d5b80,611e663aec5d416aef29f378,
,,,,space,0.4972,,0,179,179,188,1,I, , , , ,space,2500,2.5,611d33f0b3342b0f5fefbb1d,001,2021-08-19_15h10.27.597,natb3,2021.2.3,Win32,30.00930288,611d33f0b3342b0f5fefbb1d,611e07ecdcc96256ae8d5b80,611e663aec5d416aef29f378,
,,,,space,0.453,,0,180,180,186,1,U, , , , ,space,2500,2.5,611d33f0b3342b0f5fefbb1d,001,2021-08-19_15h10.27.597,natb3,2021.2.3,Win32,30.00930288,611d33f0b3342b0f5fefbb1d,611e07ecdcc96256ae8d5b80,611e663aec5d416aef29f378,
,,,,space,0.4875,,0,181,181,73,1,Y, , , , ,space,2000,2,611d33f0b3342b0f5fefbb1d,001,2021-08-19_15h10.27.597,natb3,2021.2.3,Win32,30.00930288,611d33f0b3342b0f5fefbb1d,611e07ecdcc96256ae8d5b80,611e663aec5d416aef29f378,
,,,,,,,0,182,182,155,1,O, , , , ,space,1500,1.5,611d33f0b3342b0f5fefbb1d,001,2021-08-19_15h10.27.597,natb3,2021.2.3,Win32,30.00930288,611d33f0b3342b0f5fefbb1d,611e07ecdcc96256ae8d5b80,611e663aec5d416aef29f378,
,,,,space,0.6704,,0,183,183,104,1,E, , , , ,space,2000,2,611d33f0b3342b0f5fefbb1d,001,2021-08-19_15h10.27.597,natb3,2021.2.3,Win32,30.00930288,611d33f0b3342b0f5fefbb1d,611e07ecdcc96256ae8d5b80,611e663aec5d416aef29f378,
,,,,,,,0,184,184,51,1,X,7,5,8, ,,1500,1.5,611d33f0b3342b0f5fefbb1d,001,2021-08-19_15h10.27.597,natb3,2021.2.3,Win32,30.00930288,611d33f0b3342b0f5fefbb1d,611e07ecdcc96256ae8d5b80,611e663aec5d416aef29f378,
,,,,space,0.6823,,0,185,185,100,1,M, , , , ,space,2000,2,611d33f0b3342b0f5fefbb1d,001,2021-08-19_15h10.27.597,natb3,2021.2.3,Win32,30.00930288,611d33f0b3342b0f5fefbb1d,611e07ecdcc96256ae8d5b80,611e663aec5d416aef29f378,
,,,,space,0.713,,0,186,186,194,1,D, , , , ,space,2000,2,611d33f0b3342b0f5fefbb1d,001,2021-08-19_15h10.27.597,natb3,2021.2.3,Win32,30.00930288,611d33f0b3342b0f5fefbb1d,611e07ecdcc96256ae8d5b80,611e663aec5d416aef29f378,
,,,,,,,0,187,187,98,1,X, , , , ,,2500,2.5,611d33f0b3342b0f5fefbb1d,001,2021-08-19_15h10.27.597,natb3,2021.2.3,Win32,30.00930288,611d33f0b3342b0f5fefbb1d,611e07ecdcc96256ae8d5b80,611e663aec5d416aef29f378,
,,,,space,0.571,,0,188,188,173,1,V, , , , ,space,1500,1.5,611d33f0b3342b0f5fefbb1d,001,2021-08-19_15h10.27.597,natb3,2021.2.3,Win32,30.00930288,611d33f0b3342b0f5fefbb1d,611e07ecdcc96256ae8d5b80,611e663aec5d416aef29f378,
,,,,space,0.6432,,0,189,189,272,1,D, , , , ,space,2000,2,611d33f0b3342b0f5fefbb1d,001,2021-08-19_15h10.27.597,natb3,2021.2.3,Win32,30.00930288,611d33f0b3342b0f5fefbb1d,611e07ecdcc96256ae8d5b80,611e663aec5d416aef29f378,
,,,,space,0.7623,,0,190,190,210,1,M, , , , ,space,1500,1.5,611d33f0b3342b0f5fefbb1d,001,2021-08-19_15h10.27.597,natb3,2021.2.3,Win32,30.00930288,611d33f0b3342b0f5fefbb1d,611e07ecdcc96256ae8d5b80,611e663aec5d416aef29f378,
,,,,space,0.6753,,0,191,191,317,1,C, , , , ,space,2000,2,611d33f0b3342b0f5fefbb1d,001,2021-08-19_15h10.27.597,natb3,2021.2.3,Win32,30.00930288,611d33f0b3342b0f5fefbb1d,611e07ecdcc96256ae8d5b80,611e663aec5d416aef29f378,
,,,,space,0.5885,,0,192,192,21,1,J, , , , ,space,1500,1.5,611d33f0b3342b0f5fefbb1d,001,2021-08-19_15h10.27.597,natb3,2021.2.3,Win32,30.00930288,611d33f0b3342b0f5fefbb1d,611e07ecdcc96256ae8d5b80,611e663aec5d416aef29f378,
,,,,,,,0,193,193,60,1,X,7,3,5, ,,1500,1.5,611d33f0b3342b0f5fefbb1d,001,2021-08-19_15h10.27.597,natb3,2021.2.3,Win32,30.00930288,611d33f0b3342b0f5fefbb1d,611e07ecdcc96256ae8d5b80,611e663aec5d416aef29f378,
,,,,,,,0,194,194,4,1,X, , , , ,,2000,2,611d33f0b3342b0f5fefbb1d,001,2021-08-19_15h10.27.597,natb3,2021.2.3,Win32,30.00930288,611d33f0b3342b0f5fefbb1d,611e07ecdcc96256ae8d5b80,611e663aec5d416aef29f378,
,,,,space,0.5061,,0,195,195,47,1,P, , , , ,space,2000,2,611d33f0b3342b0f5fefbb1d,001,2021-08-19_15h10.27.597,natb3,2021.2.3,Win32,30.00930288,611d33f0b3342b0f5fefbb1d,611e07ecdcc96256ae8d5b80,611e663aec5d416aef29f378,
,,,,space,0.9404,,0,196,196,333,1,I, , , , ,space,1500,1.5,611d33f0b3342b0f5fefbb1d,001,2021-08-19_15h10.27.597,natb3,2021.2.3,Win32,30.00930288,611d33f0b3342b0f5fefbb1d,611e07ecdcc96256ae8d5b80,611e663aec5d416aef29f378,
,,,,,,,0,197,197,129,1,X,2,3,5, ,,1500,1.5,611d33f0b3342b0f5fefbb1d,001,2021-08-19_15h10.27.597,natb3,2021.2.3,Win32,30.00930288,611d33f0b3342b0f5fefbb1d,611e07ecdcc96256ae8d5b80,611e663aec5d416aef29f378,
,,,,,,,0,198,198,328,1,R, , , , ,space,1500,1.5,611d33f0b3342b0f5fefbb1d,001,2021-08-19_15h10.27.597,natb3,2021.2.3,Win32,30.00930288,611d33f0b3342b0f5fefbb1d,611e07ecdcc96256ae8d5b80,611e663aec5d416aef29f378,
,,,,space,0.4011,,0,199,199,149,1,R, , , , ,space,2000,2,611d33f0b3342b0f5fefbb1d,001,2021-08-19_15h10.27.597,natb3,2021.2.3,Win32,30.00930288,611d33f0b3342b0f5fefbb1d,611e07ecdcc96256ae8d5b80,611e663aec5d416aef29f378,
,,,,space,0.8279,,0,200,200,84,1,X, , , , ,,2000,2,611d33f0b3342b0f5fefbb1d,001,2021-08-19_15h10.27.597,natb3,2021.2.3,Win32,30.00930288,611d33f0b3342b0f5fefbb1d,611e07ecdcc96256ae8d5b80,611e663aec5d416aef29f378,
,,,,space,0.6711,,0,201,201,314,1,L, , , , ,space,1500,1.5,611d33f0b3342b0f5fefbb1d,001,2021-08-19_15h10.27.597,natb3,2021.2.3,Win32,30.00930288,611d33f0b3342b0f5fefbb1d,611e07ecdcc96256ae8d5b80,611e663aec5d416aef29f378,
,,,,space,0.7631,,0,202,202,13,1,A, , , , ,space,2000,2,611d33f0b3342b0f5fefbb1d,001,2021-08-19_15h10.27.597,natb3,2021.2.3,Win32,30.00930288,611d33f0b3342b0f5fefbb1d,611e07ecdcc96256ae8d5b80,611e663aec5d416aef29f378,
,,,,,,,0,203,203,5,1,T, , , , ,space,2000,2,611d33f0b3342b0f5fefbb1d,001,2021-08-19_15h10.27.597,natb3,2021.2.3,Win32,30.00930288,611d33f0b3342b0f5fefbb1d,611e07ecdcc96256ae8d5b80,611e663aec5d416aef29f378,
,,,,space,0.6474,,0,204,204,79,1,P, , , , ,space,2000,2,611d33f0b3342b0f5fefbb1d,001,2021-08-19_15h10.27.597,natb3,2021.2.3,Win32,30.00930288,611d33f0b3342b0f5fefbb1d,611e07ecdcc96256ae8d5b80,611e663aec5d416aef29f378,
,,,,,,,0,205,205,229,1,X,8, ,2,6,,2500,2.5,611d33f0b3342b0f5fefbb1d,001,2021-08-19_15h10.27.597,natb3,2021.2.3,Win32,30.00930288,611d33f0b3342b0f5fefbb1d,611e07ecdcc96256ae8d5b80,611e663aec5d416aef29f378,
,,,,space,0.6302,,0,206,206,152,1,U, , , , ,space,2000,2,611d33f0b3342b0f5fefbb1d,001,2021-08-19_15h10.27.597,natb3,2021.2.3,Win32,30.00930288,611d33f0b3342b0f5fefbb1d,611e07ecdcc96256ae8d5b80,611e663aec5d416aef29f378,
,,,,space,0.579,,0,207,207,253,1,N, , , , ,space,2500,2.5,611d33f0b3342b0f5fefbb1d,001,2021-08-19_15h10.27.597,natb3,2021.2.3,Win32,30.00930288,611d33f0b3342b0f5fefbb1d,611e07ecdcc96256ae8d5b80,611e663aec5d416aef29f378,
,,,,space,0.5528,,0,208,208,303,1,A, , , , ,space,2000,2,611d33f0b3342b0f5fefbb1d,001,2021-08-19_15h10.27.597,natb3,2021.2.3,Win32,30.00930288,611d33f0b3342b0f5fefbb1d,611e07ecdcc96256ae8d5b80,611e663aec5d416aef29f378,
,,,,,,,0,209,209,122,1,X,1, , ,8,,1500,1.5,611d33f0b3342b0f5fefbb1d,001,2021-08-19_15h10.27.597,natb3,2021.2.3,Win32,30.00930288,611d33f0b3342b0f5fefbb1d,611e07ecdcc96256ae8d5b80,611e663aec5d416aef29f378,
,,,,,,,0,210,210,25,1,Z, , , , ,space,2500,2.5,611d33f0b3342b0f5fefbb1d,001,2021-08-19_15h10.27.597,natb3,2021.2.3,Win32,30.00930288,611d33f0b3342b0f5fefbb1d,611e07ecdcc96256ae8d5b80,611e663aec5d416aef29f378,
,,,,space,0.4098,,0,211,211,127,1,S, , , , ,space,2500,2.5,611d33f0b3342b0f5fefbb1d,001,2021-08-19_15h10.27.597,natb3,2021.2.3,Win32,30.00930288,611d33f0b3342b0f5fefbb1d,611e07ecdcc96256ae8d5b80,611e663aec5d416aef29f378,
,,,,space,0.4327,,0,212,212,220,1,U, , , , ,space,2500,2.5,611d33f0b3342b0f5fefbb1d,001,2021-08-19_15h10.27.597,natb3,2021.2.3,Win32,30.00930288,611d33f0b3342b0f5fefbb1d,611e07ecdcc96256ae8d5b80,611e663aec5d416aef29f378,
,,,,space,0.4919,,0,213,213,264,1,U, , , , ,space,2000,2,611d33f0b3342b0f5fefbb1d,001,2021-08-19_15h10.27.597,natb3,2021.2.3,Win32,30.00930288,611d33f0b3342b0f5fefbb1d,611e07ecdcc96256ae8d5b80,611e663aec5d416aef29f378,
,,,,,,,0,214,214,252,1,X,3, ,6,9,,2000,2,611d33f0b3342b0f5fefbb1d,001,2021-08-19_15h10.27.597,natb3,2021.2.3,Win32,30.00930288,611d33f0b3342b0f5fefbb1d,611e07ecdcc96256ae8d5b80,611e663aec5d416aef29f378,
,,,,space,0.482,,0,215,215,80,1,A, , , , ,space,2000,2,611d33f0b3342b0f5fefbb1d,001,2021-08-19_15h10.27.597,natb3,2021.2.3,Win32,30.00930288,611d33f0b3342b0f5fefbb1d,611e07ecdcc96256ae8d5b80,611e663aec5d416aef29f378,
,,,,space,0.4396,,0,216,216,184,1,T, , , , ,space,2000,2,611d33f0b3342b0f5fefbb1d,001,2021-08-19_15h10.27.597,natb3,2021.2.3,Win32,30.00930288,611d33f0b3342b0f5fefbb1d,611e07ecdcc96256ae8d5b80,611e663aec5d416aef29f378,
,,,,space,0.6073,,0,217,217,88,1,J, , , , ,space,2500,2.5,611d33f0b3342b0f5fefbb1d,001,2021-08-19_15h10.27.597,natb3,2021.2.3,Win32,30.00930288,611d33f0b3342b0f5fefbb1d,611e07ecdcc96256ae8d5b80,611e663aec5d416aef29f378,
,,,,space,0.5928,,0,218,218,36,1,W, , , , ,space,2000,2,611d33f0b3342b0f5fefbb1d,001,2021-08-19_15h10.27.597,natb3,2021.2.3,Win32,30.00930288,611d33f0b3342b0f5fefbb1d,611e07ecdcc96256ae8d5b80,611e663aec5d416aef29f378,
,,,,space,0.9206,,0,219,219,44,1,I, , , , ,space,2500,2.5,611d33f0b3342b0f5fefbb1d,001,2021-08-19_15h10.27.597,natb3,2021.2.3,Win32,30.00930288,611d33f0b3342b0f5fefbb1d,611e07ecdcc96256ae8d5b80,611e663aec5d416aef29f378,
,,,,,,,0,220,220,103,1,W, , , , ,space,2000,2,611d33f0b3342b0f5fefbb1d,001,2021-08-19_15h10.27.597,natb3,2021.2.3,Win32,30.00930288,611d33f0b3342b0f5fefbb1d,611e07ecdcc96256ae8d5b80,611e663aec5d416aef29f378,
,,,,space,0.5214,,0,221,221,38,1,R, , , , ,space,2500,2.5,611d33f0b3342b0f5fefbb1d,001,2021-08-19_15h10.27.597,natb3,2021.2.3,Win32,30.00930288,611d33f0b3342b0f5fefbb1d,611e07ecdcc96256ae8d5b80,611e663aec5d416aef29f378,
,,,,space,0.5878,,0,222,222,137,1,C, , , , ,space,2500,2.5,611d33f0b3342b0f5fefbb1d,001,2021-08-19_15h10.27.597,natb3,2021.2.3,Win32,30.00930288,611d33f0b3342b0f5fefbb1d,611e07ecdcc96256ae8d5b80,611e663aec5d416aef29f378,
,,,,space,0.7424,,0,223,223,14,1,S, , , , ,space,2500,2.5,611d33f0b3342b0f5fefbb1d,001,2021-08-19_15h10.27.597,natb3,2021.2.3,Win32,30.00930288,611d33f0b3342b0f5fefbb1d,611e07ecdcc96256ae8d5b80,611e663aec5d416aef29f378,
,,,,space,0.5246,,0,224,224,334,1,O, , , , ,space,1500,1.5,611d33f0b3342b0f5fefbb1d,001,2021-08-19_15h10.27.597,natb3,2021.2.3,Win32,30.00930288,611d33f0b3342b0f5fefbb1d,611e07ecdcc96256ae8d5b80,611e663aec5d416aef29f378,
,,,,space,0.9548,,0,225,225,164,1,H, , , , ,space,2500,2.5,611d33f0b3342b0f5fefbb1d,001,2021-08-19_15h10.27.597,natb3,2021.2.3,Win32,30.00930288,611d33f0b3342b0f5fefbb1d,611e07ecdcc96256ae8d5b80,611e663aec5d416aef29f378,
,,,,space,0.5396,,0,226,226,297,1,U, , , , ,space,2000,2,611d33f0b3342b0f5fefbb1d,001,2021-08-19_15h10.27.597,natb3,2021.2.3,Win32,30.00930288,611d33f0b3342b0f5fefbb1d,611e07ecdcc96256ae8d5b80,611e663aec5d416aef29f378,
,,,,,,,0,227,227,76,1,I, , , , ,space,2000,2,611d33f0b3342b0f5fefbb1d,001,2021-08-19_15h10.27.597,natb3,2021.2.3,Win32,30.00930288,611d33f0b3342b0f5fefbb1d,611e07ecdcc96256ae8d5b80,611e663aec5d416aef29f378,
,,,,space,0.5673,,0,228,228,16,1,D, , , , ,space,1500,1.5,611d33f0b3342b0f5fefbb1d,001,2021-08-19_15h10.27.597,natb3,2021.2.3,Win32,30.00930288,611d33f0b3342b0f5fefbb1d,611e07ecdcc96256ae8d5b80,611e663aec5d416aef29f378,
,,,,space,0.5271,,0,229,229,313,1,X, , , , ,,2500,2.5,611d33f0b3342b0f5fefbb1d,001,2021-08-19_15h10.27.597,natb3,2021.2.3,Win32,30.00930288,611d33f0b3342b0f5fefbb1d,611e07ecdcc96256ae8d5b80,611e663aec5d416aef29f378,
,,,,space,0.3998,,0,230,230,278,1,J, , , , ,space,2000,2,611d33f0b3342b0f5fefbb1d,001,2021-08-19_15h10.27.597,natb3,2021.2.3,Win32,30.00930288,611d33f0b3342b0f5fefbb1d,611e07ecdcc96256ae8d5b80,611e663aec5d416aef29f378,
,,,,space,0.4377,,0,231,231,96,1,X, , , , ,,1500,1.5,611d33f0b3342b0f5fefbb1d,001,2021-08-19_15h10.27.597,natb3,2021.2.3,Win32,30.00930288,611d33f0b3342b0f5fefbb1d,611e07ecdcc96256ae8d5b80,611e663aec5d416aef29f378,
,,,,space,0.648,,0,232,232,296,1,Y, , , , ,space,2500,2.5,611d33f0b3342b0f5fefbb1d,001,2021-08-19_15h10.27.597,natb3,2021.2.3,Win32,30.00930288,611d33f0b3342b0f5fefbb1d,611e07ecdcc96256ae8d5b80,611e663aec5d416aef29f378,
,,,,space,0.5324,,0,233,233,197,1,G, , , , ,space,2500,2.5,611d33f0b3342b0f5fefbb1d,001,2021-08-19_15h10.27.597,natb3,2021.2.3,Win32,30.00930288,611d33f0b3342b0f5fefbb1d,611e07ecdcc96256ae8d5b80,611e663aec5d416aef29f378,
,,,,space,0.8533,,0,234,234,131,1,G, , , , ,space,1500,1.5,611d33f0b3342b0f5fefbb1d,001,2021-08-19_15h10.27.597,natb3,2021.2.3,Win32,30.00930288,611d33f0b3342b0f5fefbb1d,611e07ecdcc96256ae8d5b80,611e663aec5d416aef29f378,
,,,,space,0.6397,,0,235,235,75,1,U, , , , ,space,1500,1.5,611d33f0b3342b0f5fefbb1d,001,2021-08-19_15h10.27.597,natb3,2021.2.3,Win32,30.00930288,611d33f0b3342b0f5fefbb1d,611e07ecdcc96256ae8d5b80,611e663aec5d416aef29f378,
,,,,space,0.6319,,0,236,236,10,1,O, , , , ,space,2000,2,611d33f0b3342b0f5fefbb1d,001,2021-08-19_15h10.27.597,natb3,2021.2.3,Win32,30.00930288,611d33f0b3342b0f5fefbb1d,611e07ecdcc96256ae8d5b80,611e663aec5d416aef29f378,
,,,,,,,0,237,237,178,1,Q, , , , ,space,1500,1.5,611d33f0b3342b0f5fefbb1d,001,2021-08-19_15h10.27.597,natb3,2021.2.3,Win32,30.00930288,611d33f0b3342b0f5fefbb1d,611e07ecdcc96256ae8d5b80,611e663aec5d416aef29f378,
,,,,space,0.7596,,0,238,238,202,1,L, , , , ,space,2500,2.5,611d33f0b3342b0f5fefbb1d,001,2021-08-19_15h10.27.597,natb3,2021.2.3,Win32,30.00930288,611d33f0b3342b0f5fefbb1d,611e07ecdcc96256ae8d5b80,611e663aec5d416aef29f378,
,,,,space,0.582,,0,239,239,121,1,I, , , , ,space,2000,2,611d33f0b3342b0f5fefbb1d,001,2021-08-19_15h10.27.597,natb3,2021.2.3,Win32,30.00930288,611d33f0b3342b0f5fefbb1d,611e07ecdcc96256ae8d5b80,611e663aec5d416aef29f378,
,,,,space,0.6219,,0,240,240,222,1,O, , , , ,space,2000,2,611d33f0b3342b0f5fefbb1d,001,2021-08-19_15h10.27.597,natb3,2021.2.3,Win32,30.00930288,611d33f0b3342b0f5fefbb1d,611e07ecdcc96256ae8d5b80,611e663aec5d416aef29f378,
,,,,space,0.4473,,0,241,241,71,1,R, , , , ,space,2500,2.5,611d33f0b3342b0f5fefbb1d,001,2021-08-19_15h10.27.597,natb3,2021.2.3,Win32,30.00930288,611d33f0b3342b0f5fefbb1d,611e07ecdcc96256ae8d5b80,611e663aec5d416aef29f378,
,,,,space,0.4925,,0,242,242,111,1,O, , , , ,space,2000,2,611d33f0b3342b0f5fefbb1d,001,2021-08-19_15h10.27.597,natb3,2021.2.3,Win32,30.00930288,611d33f0b3342b0f5fefbb1d,611e07ecdcc96256ae8d5b80,611e663aec5d416aef29f378,
,,,,space,0.5283,,0,243,243,326,1,W, , , , ,space,2000,2,611d33f0b3342b0f5fefbb1d,001,2021-08-19_15h10.27.597,natb3,2021.2.3,Win32,30.00930288,611d33f0b3342b0f5fefbb1d,611e07ecdcc96256ae8d5b80,611e663aec5d416aef29f378,
,,,,space,0.5892,,0,244,244,275,1,G, , , , ,space,1500,1.5,611d33f0b3342b0f5fefbb1d,001,2021-08-19_15h10.27.597,natb3,2021.2.3,Win32,30.00930288,611d33f0b3342b0f5fefbb1d,611e07ecdcc96256ae8d5b80,611e663aec5d416aef29f378,
,,,,space,0.3935,,0,245,245,0,1,Q, , , , ,space,1500,1.5,611d33f0b3342b0f5fefbb1d,001,2021-08-19_15h10.27.597,natb3,2021.2.3,Win32,30.00930288,611d33f0b3342b0f5fefbb1d,611e07ecdcc96256ae8d5b80,611e663aec5d416aef29f378,
,,,,space,0.4964,,0,246,246,91,1,L, , , , ,space,2000,2,611d33f0b3342b0f5fefbb1d,001,2021-08-19_15h10.27.597,natb3,2021.2.3,Win32,30.00930288,611d33f0b3342b0f5fefbb1d,611e07ecdcc96256ae8d5b80,611e663aec5d416aef29f378,
,,,,,,,0,247,247,302,1,X, , , , ,,2000,2,611d33f0b3342b0f5fefbb1d,001,2021-08-19_15h10.27.597,natb3,2021.2.3,Win32,30.00930288,611d33f0b3342b0f5fefbb1d,611e07ecdcc96256ae8d5b80,611e663aec5d416aef29f378,
,,,,,,,0,248,248,89,1,X,3, , , ,,2000,2,611d33f0b3342b0f5fefbb1d,001,2021-08-19_15h10.27.597,natb3,2021.2.3,Win32,30.00930288,611d33f0b3342b0f5fefbb1d,611e07ecdcc96256ae8d5b80,611e663aec5d416aef29f378,
,,,,space,0.4015,,0,249,249,151,1,Y, , , , ,space,2500,2.5,611d33f0b3342b0f5fefbb1d,001,2021-08-19_15h10.27.597,natb3,2021.2.3,Win32,30.00930288,611d33f0b3342b0f5fefbb1d,611e07ecdcc96256ae8d5b80,611e663aec5d416aef29f378,
,,,,,,,0,250,250,282,1,X, , , , ,,2500,2.5,611d33f0b3342b0f5fefbb1d,001,2021-08-19_15h10.27.597,natb3,2021.2.3,Win32,30.00930288,611d33f0b3342b0f5fefbb1d,611e07ecdcc96256ae8d5b80,611e663aec5d416aef29f378,
,,,,space,0.3695,,0,251,251,311,1,X,1,2,7,3,,2500,2.5,611d33f0b3342b0f5fefbb1d,001,2021-08-19_15h10.27.597,natb3,2021.2.3,Win32,30.00930288,611d33f0b3342b0f5fefbb1d,611e07ecdcc96256ae8d5b80,611e663aec5d416aef29f378,
,,,,space,0.5593,,0,252,252,280,1,L, , , , ,space,1500,1.5,611d33f0b3342b0f5fefbb1d,001,2021-08-19_15h10.27.597,natb3,2021.2.3,Win32,30.00930288,611d33f0b3342b0f5fefbb1d,611e07ecdcc96256ae8d5b80,611e663aec5d416aef29f378,
,,,,,,,0,253,253,248,1,X, ,1,5, ,,1500,1.5,611d33f0b3342b0f5fefbb1d,001,2021-08-19_15h10.27.597,natb3,2021.2.3,Win32,30.00930288,611d33f0b3342b0f5fefbb1d,611e07ecdcc96256ae8d5b80,611e663aec5d416aef29f378,
,,,,,,,0,254,254,168,1,X, , , , ,,2500,2.5,611d33f0b3342b0f5fefbb1d,001,2021-08-19_15h10.27.597,natb3,2021.2.3,Win32,30.00930288,611d33f0b3342b0f5fefbb1d,611e07ecdcc96256ae8d5b80,611e663aec5d416aef29f378,
,,,,space,0.5809,,0,255,255,324,1,Q, , , , ,space,2000,2,611d33f0b3342b0f5fefbb1d,001,2021-08-19_15h10.27.597,natb3,2021.2.3,Win32,30.00930288,611d33f0b3342b0f5fefbb1d,611e07ecdcc96256ae8d5b80,611e663aec5d416aef29f378,
,,,,space,0.4872,,0,256,256,225,1,E, , , , ,space,2000,2,611d33f0b3342b0f5fefbb1d,001,2021-08-19_15h10.27.597,natb3,2021.2.3,Win32,30.00930288,611d33f0b3342b0f5fefbb1d,611e07ecdcc96256ae8d5b80,611e663aec5d416aef29f378,
,,,,space,0.457,,0,257,257,204,1,Z, , , , ,space,2000,2,611d33f0b3342b0f5fefbb1d,001,2021-08-19_15h10.27.597,natb3,2021.2.3,Win32,30.00930288,611d33f0b3342b0f5fefbb1d,611e07ecdcc96256ae8d5b80,611e663aec5d416aef29f378,
,,,,space,0.4378,,0,258,258,2,1,E, , , , ,space,2500,2.5,611d33f0b3342b0f5fefbb1d,001,2021-08-19_15h10.27.597,natb3,2021.2.3,Win32,30.00930288,611d33f0b3342b0f5fefbb1d,611e07ecdcc96256ae8d5b80,611e663aec5d416aef29f378,
,,,,space,0.4735,,0,259,259,125,1,X, , , , ,,2000,2,611d33f0b3342b0f5fefbb1d,001,2021-08-19_15h10.27.597,natb3,2021.2.3,Win32,30.00930288,611d33f0b3342b0f5fefbb1d,611e07ecdcc96256ae8d5b80,611e663aec5d416aef29f378,
,,,,space,0.6987,,0,260,260,231,1,I, , , , ,space,2500,2.5,611d33f0b3342b0f5fefbb1d,001,2021-08-19_15h10.27.597,natb3,2021.2.3,Win32,30.00930288,611d33f0b3342b0f5fefbb1d,611e07ecdcc96256ae8d5b80,611e663aec5d416aef29f378,
,,,,space,0.6028,,0,261,261,95,1,V, , , , ,space,1500,1.5,611d33f0b3342b0f5fefbb1d,001,2021-08-19_15h10.27.597,natb3,2021.2.3,Win32,30.00930288,611d33f0b3342b0f5fefbb1d,611e07ecdcc96256ae8d5b80,611e663aec5d416aef29f378,
,,,,space,0.5297,,0,262,262,250,1,V, , , , ,space,2000,2,611d33f0b3342b0f5fefbb1d,001,2021-08-19_15h10.27.597,natb3,2021.2.3,Win32,30.00930288,611d33f0b3342b0f5fefbb1d,611e07ecdcc96256ae8d5b80,611e663aec5d416aef29f378,
,,,,space,0.5361,,0,263,263,181,1,E, , , , ,space,1500,1.5,611d33f0b3342b0f5fefbb1d,001,2021-08-19_15h10.27.597,natb3,2021.2.3,Win32,30.00930288,611d33f0b3342b0f5fefbb1d,611e07ecdcc96256ae8d5b80,611e663aec5d416aef29f378,
,,,,space,0.5783,,0,264,264,53,1,G, , , , ,space,2500,2.5,611d33f0b3342b0f5fefbb1d,001,2021-08-19_15h10.27.597,natb3,2021.2.3,Win32,30.00930288,611d33f0b3342b0f5fefbb1d,611e07ecdcc96256ae8d5b80,611e663aec5d416aef29f378,
,,,,space,0.3979,,0,265,265,83,1,D, , , , ,space,2000,2,611d33f0b3342b0f5fefbb1d,001,2021-08-19_15h10.27.597,natb3,2021.2.3,Win32,30.00930288,611d33f0b3342b0f5fefbb1d,611e07ecdcc96256ae8d5b80,611e663aec5d416aef29f378,
,,,,space,0.4409,,0,266,266,284,1,V, , , , ,space,2500,2.5,611d33f0b3342b0f5fefbb1d,001,2021-08-19_15h10.27.597,natb3,2021.2.3,Win32,30.00930288,611d33f0b3342b0f5fefbb1d,611e07ecdcc96256ae8d5b80,611e663aec5d416aef29f378,
,,,,,,,0,267,267,236,1,X,3, ,4,7,,2500,2.5,611d33f0b3342b0f5fefbb1d,001,2021-08-19_15h10.27.597,natb3,2021.2.3,Win32,30.00930288,611d33f0b3342b0f5fefbb1d,611e07ecdcc96256ae8d5b80,611e663aec5d416aef29f378,
,,,,space,0.9647,,0,268,268,132,1,H, , , , ,space,2500,2.5,611d33f0b3342b0f5fefbb1d,001,2021-08-19_15h10.27.597,natb3,2021.2.3,Win32,30.00930288,611d33f0b3342b0f5fefbb1d,611e07ecdcc96256ae8d5b80,611e663aec5d416aef29f378,
,,,,space,0.5776,,0,269,269,90,1,K, , , , ,space,2000,2,611d33f0b3342b0f5fefbb1d,001,2021-08-19_15h10.27.597,natb3,2021.2.3,Win32,30.00930288,611d33f0b3342b0f5fefbb1d,611e07ecdcc96256ae8d5b80,611e663aec5d416aef29f378,
,,,,space,0.592,,0,270,270,183,1,R, , , , ,space,1500,1.5,611d33f0b3342b0f5fefbb1d,001,2021-08-19_15h10.27.597,natb3,2021.2.3,Win32,30.00930288,611d33f0b3342b0f5fefbb1d,611e07ecdcc96256ae8d5b80,611e663aec5d416aef29f378,
,,,,space,0.5093,,0,271,271,24,1,L, , , , ,space,2500,2.5,611d33f0b3342b0f5fefbb1d,001,2021-08-19_15h10.27.597,natb3,2021.2.3,Win32,30.00930288,611d33f0b3342b0f5fefbb1d,611e07ecdcc96256ae8d5b80,611e663aec5d416aef29f378,
,,,,space,0.7967,,0,272,272,310,1,J, , , , ,space,2500,2.5,611d33f0b3342b0f5fefbb1d,001,2021-08-19_15h10.27.597,natb3,2021.2.3,Win32,30.00930288,611d33f0b3342b0f5fefbb1d,611e07ecdcc96256ae8d5b80,611e663aec5d416aef29f378,
,,,,space,0.5198,,0,273,273,298,1,I, , , , ,space,2000,2,611d33f0b3342b0f5fefbb1d,001,2021-08-19_15h10.27.597,natb3,2021.2.3,Win32,30.00930288,611d33f0b3342b0f5fefbb1d,611e07ecdcc96256ae8d5b80,611e663aec5d416aef29f378,
,,,,space,0.6682,,0,274,274,256,1,Q, , , , ,space,2000,2,611d33f0b3342b0f5fefbb1d,001,2021-08-19_15h10.27.597,natb3,2021.2.3,Win32,30.00930288,611d33f0b3342b0f5fefbb1d,611e07ecdcc96256ae8d5b80,611e663aec5d416aef29f378,
,,,,space,0.6493,,0,275,275,307,1,F, , , , ,space,2500,2.5,611d33f0b3342b0f5fefbb1d,001,2021-08-19_15h10.27.597,natb3,2021.2.3,Win32,30.00930288,611d33f0b3342b0f5fefbb1d,611e07ecdcc96256ae8d5b80,611e663aec5d416aef29f378,
,,,,space,0.5094,,0,276,276,260,1,R, , , , ,space,2000,2,611d33f0b3342b0f5fefbb1d,001,2021-08-19_15h10.27.597,natb3,2021.2.3,Win32,30.00930288,611d33f0b3342b0f5fefbb1d,611e07ecdcc96256ae8d5b80,611e663aec5d416aef29f378,
,,,,space,0.5251,,0,277,277,81,1,S, , , , ,space,2000,2,611d33f0b3342b0f5fefbb1d,001,2021-08-19_15h10.27.597,natb3,2021.2.3,Win32,30.00930288,611d33f0b3342b0f5fefbb1d,611e07ecdcc96256ae8d5b80,611e663aec5d416aef29f378,
,,,,space,0.4931,,0,278,278,270,1,S, , , , ,space,1500,1.5,611d33f0b3342b0f5fefbb1d,001,2021-08-19_15h10.27.597,natb3,2021.2.3,Win32,30.00930288,611d33f0b3342b0f5fefbb1d,611e07ecdcc96256ae8d5b80,611e663aec5d416aef29f378,
,,,,,,,0,279,279,325,1,X, , , , ,,2500,2.5,611d33f0b3342b0f5fefbb1d,001,2021-08-19_15h10.27.597,natb3,2021.2.3,Win32,30.00930288,611d33f0b3342b0f5fefbb1d,611e07ecdcc96256ae8d5b80,611e663aec5d416aef29f378,
,,,,,,,0,280,280,335,1,P,,,,,space,1500,1.5,611d33f0b3342b0f5fefbb1d,001,2021-08-19_15h10.27.597,natb3,2021.2.3,Win32,30.00930288,611d33f0b3342b0f5fefbb1d,611e07ecdcc96256ae8d5b80,611e663aec5d416aef29f378,
,,,,space,0.5267,,0,281,281,22,1,K, , , , ,space,2000,2,611d33f0b3342b0f5fefbb1d,001,2021-08-19_15h10.27.597,natb3,2021.2.3,Win32,30.00930288,611d33f0b3342b0f5fefbb1d,611e07ecdcc96256ae8d5b80,611e663aec5d416aef29f378,
,,,,space,0.5248,,0,282,282,72,1,T, , , , ,space,1500,1.5,611d33f0b3342b0f5fefbb1d,001,2021-08-19_15h10.27.597,natb3,2021.2.3,Win32,30.00930288,611d33f0b3342b0f5fefbb1d,611e07ecdcc96256ae8d5b80,611e663aec5d416aef29f378,
,,,,space,0.4503,,0,283,283,170,1,Z, , , , ,space,2000,2,611d33f0b3342b0f5fefbb1d,001,2021-08-19_15h10.27.597,natb3,2021.2.3,Win32,30.00930288,611d33f0b3342b0f5fefbb1d,611e07ecdcc96256ae8d5b80,611e663aec5d416aef29f378,
,,,,,,,0,284,284,27,1,X,5, ,1,3,,1500,1.5,611d33f0b3342b0f5fefbb1d,001,2021-08-19_15h10.27.597,natb3,2021.2.3,Win32,30.00930288,611d33f0b3342b0f5fefbb1d,611e07ecdcc96256ae8d5b80,611e663aec5d416aef29f378,
,,,,,,,0,285,285,305,1,X, , , , ,,1500,1.5,611d33f0b3342b0f5fefbb1d,001,2021-08-19_15h10.27.597,natb3,2021.2.3,Win32,30.00930288,611d33f0b3342b0f5fefbb1d,611e07ecdcc96256ae8d5b80,611e663aec5d416aef29f378,
,,,,space,0.5281,,0,286,286,113,1,W, , , , ,space,2500,2.5,611d33f0b3342b0f5fefbb1d,001,2021-08-19_15h10.27.597,natb3,2021.2.3,Win32,30.00930288,611d33f0b3342b0f5fefbb1d,611e07ecdcc96256ae8d5b80,611e663aec5d416aef29f378,
,,,,space,0.6555,,0,287,287,65,1,M, , , , ,space,1500,1.5,611d33f0b3342b0f5fefbb1d,001,2021-08-19_15h10.27.597,natb3,2021.2.3,Win32,30.00930288,611d33f0b3342b0f5fefbb1d,611e07ecdcc96256ae8d5b80,611e663aec5d416aef29f378,
,,,,space,0.5869,,0,288,288,196,1,F, , , , ,space,1500,1.5,611d33f0b3342b0f5fefbb1d,001,2021-08-19_15h10.27.597,natb3,2021.2.3,Win32,30.00930288,611d33f0b3342b0f5fefbb1d,611e07ecdcc96256ae8d5b80,611e663aec5d416aef29f378,
,,,,space,0.5083,,0,289,289,102,1,X, ,6, , ,,1500,1.5,611d33f0b3342b0f5fefbb1d,001,2021-08-19_15h10.27.597,natb3,2021.2.3,Win32,30.00930288,611d33f0b3342b0f5fefbb1d,611e07ecdcc96256ae8d5b80,611e663aec5d416aef29f378,
,,,,space,0.5921,,0,290,290,266,1,O, , , , ,space,1500,1.5,611d33f0b3342b0f5fefbb1d,001,2021-08-19_15h10.27.597,natb3,2021.2.3,Win32,30.00930288,611d33f0b3342b0f5fefbb1d,611e07ecdcc96256ae8d5b80,611e663aec5d416aef29f378,
,,,,,,,0,291,291,138,1,X,8,5, ,3,,2000,2,611d33f0b3342b0f5fefbb1d,001,2021-08-19_15h10.27.597,natb3,2021.2.3,Win32,30.00930288,611d33f0b3342b0f5fefbb1d,611e07ecdcc96256ae8d5b80,611e663aec5d416aef29f378,
,,,,space,0.5406,,0,292,292,323,1,M, , , , ,space,2500,2.5,611d33f0b3342b0f5fefbb1d,001,2021-08-19_15h10.27.597,natb3,2021.2.3,Win32,30.00930288,611d33f0b3342b0f5fefbb1d,611e07ecdcc96256ae8d5b80,611e663aec5d416aef29f378,
,,,,,,,0,293,293,233,1,X, ,2, ,5,,1500,1.5,611d33f0b3342b0f5fefbb1d,001,2021-08-19_15h10.27.597,natb3,2021.2.3,Win32,30.00930288,611d33f0b3342b0f5fefbb1d,611e07ecdcc96256ae8d5b80,611e663aec5d416aef29f378,
,,,,space,0.542,,0,294,294,216,1,R, , , , ,space,1500,1.5,611d33f0b3342b0f5fefbb1d,001,2021-08-19_15h10.27.597,natb3,2021.2.3,Win32,30.00930288,611d33f0b3342b0f5fefbb1d,611e07ecdcc96256ae8d5b80,611e663aec5d416aef29f378,
,,,,,,,0,295,295,107,1,X,9,3, ,2,,2000,2,611d33f0b3342b0f5fefbb1d,001,2021-08-19_15h10.27.597,natb3,2021.2.3,Win32,30.00930288,611d33f0b3342b0f5fefbb1d,611e07ecdcc96256ae8d5b80,611e663aec5d416aef29f378,
,,,,space,0.6954,,0,296,296,230,1,U, , , , ,space,1500,1.5,611d33f0b3342b0f5fefbb1d,001,2021-08-19_15h10.27.597,natb3,2021.2.3,Win32,30.00930288,611d33f0b3342b0f5fefbb1d,611e07ecdcc96256ae8d5b80,611e663aec5d416aef29f378,
,,,,space,0.6065,,0,297,297,140,1,B, , , , ,space,2500,2.5,611d33f0b3342b0f5fefbb1d,001,2021-08-19_15h10.27.597,natb3,2021.2.3,Win32,30.00930288,611d33f0b3342b0f5fefbb1d,611e07ecdcc96256ae8d5b80,611e663aec5d416aef29f378,
,,,,space,0.7068,,0,298,298,199,1,J, , , , ,space,2500,2.5,611d33f0b3342b0f5fefbb1d,001,2021-08-19_15h10.27.597,natb3,2021.2.3,Win32,30.00930288,611d33f0b3342b0f5fefbb1d,611e07ecdcc96256ae8d5b80,611e663aec5d416aef29f378,
,,,,,,,0,299,299,12,1,X, , , , ,,1500,1.5,611d33f0b3342b0f5fefbb1d,001,2021-08-19_15h10.27.597,natb3,2021.2.3,Win32,30.00930288,611d33f0b3342b0f5fefbb1d,611e07ecdcc96256ae8d5b80,611e663aec5d416aef29f378,
,,,,space,0.5306,,0,300,300,99,1,N, , , , ,space,2500,2.5,611d33f0b3342b0f5fefbb1d,001,2021-08-19_15h10.27.597,natb3,2021.2.3,Win32,30.00930288,611d33f0b3342b0f5fefbb1d,611e07ecdcc96256ae8d5b80,611e663aec5d416aef29f378,
,,,,space,0.5346,,0,301,301,286,1,N, , , , ,space,1500,1.5,611d33f0b3342b0f5fefbb1d,001,2021-08-19_15h10.27.597,natb3,2021.2.3,Win32,30.00930288,611d33f0b3342b0f5fefbb1d,611e07ecdcc96256ae8d5b80,611e663aec5d416aef29f378,
,,,,,,,0,302,302,187,1,X, ,3,7,4,,1500,1.5,611d33f0b3342b0f5fefbb1d,001,2021-08-19_15h10.27.597,natb3,2021.2.3,Win32,30.00930288,611d33f0b3342b0f5fefbb1d,611e07ecdcc96256ae8d5b80,611e663aec5d416aef29f378,
,,,,space,0.716,,0,303,303,94,1,C, , , , ,space,2000,2,611d33f0b3342b0f5fefbb1d,001,2021-08-19_15h10.27.597,natb3,2021.2.3,Win32,30.00930288,611d33f0b3342b0f5fefbb1d,611e07ecdcc96256ae8d5b80,611e663aec5d416aef29f378,
,,,,,,,0,304,304,39,1,X,6,2, , ,,1500,1.5,611d33f0b3342b0f5fefbb1d,001,2021-08-19_15h10.27.597,natb3,2021.2.3,Win32,30.00930288,611d33f0b3342b0f5fefbb1d,611e07ecdcc96256ae8d5b80,611e663aec5d416aef29f378,
,,,,,,,0,305,305,207,1,X,9, ,2, ,,2500,2.5,611d33f0b3342b0f5fefbb1d,001,2021-08-19_15h10.27.597,natb3,2021.2.3,Win32,30.00930288,611d33f0b3342b0f5fefbb1d,611e07ecdcc96256ae8d5b80,611e663aec5d416aef29f378,
,,,,,,,0,306,306,287,1,X, ,2, ,9,,2000,2,611d33f0b3342b0f5fefbb1d,001,2021-08-19_15h10.27.597,natb3,2021.2.3,Win32,30.00930288,611d33f0b3342b0f5fefbb1d,611e07ecdcc96256ae8d5b80,611e663aec5d416aef29f378,
,,,,space,0.5862,,0,307,307,209,1,N, , , , ,space,2000,2,611d33f0b3342b0f5fefbb1d,001,2021-08-19_15h10.27.597,natb3,2021.2.3,Win32,30.00930288,611d33f0b3342b0f5fefbb1d,611e07ecdcc96256ae8d5b80,611e663aec5d416aef29f378,
,,,,space,0.5673,,0,308,308,251,1,B, , , , ,space,1500,1.5,611d33f0b3342b0f5fefbb1d,001,2021-08-19_15h10.27.597,natb3,2021.2.3,Win32,30.00930288,611d33f0b3342b0f5fefbb1d,611e07ecdcc96256ae8d5b80,611e663aec5d416aef29f378,
,,,,space,0.5349,,0,309,309,52,1,F, , , , ,space,1500,1.5,611d33f0b3342b0f5fefbb1d,001,2021-08-19_15h10.27.597,natb3,2021.2.3,Win32,30.00930288,611d33f0b3342b0f5fefbb1d,611e07ecdcc96256ae8d5b80,611e663aec5d416aef29f378,
,,,,space,0.5043,,0,310,310,276,1,H, , , , ,space,2000,2,611d33f0b3342b0f5fefbb1d,001,2021-08-19_15h10.27.597,natb3,2021.2.3,Win32,30.00930288,611d33f0b3342b0f5fefbb1d,611e07ecdcc96256ae8d5b80,611e663aec5d416aef29f378,
,,,,space,0.5902,,0,311,311,257,1,W, , , , ,space,2000,2,611d33f0b3342b0f5fefbb1d,001,2021-08-19_15h10.27.597,natb3,2021.2.3,Win32,30.00930288,611d33f0b3342b0f5fefbb1d,611e07ecdcc96256ae8d5b80,611e663aec5d416aef29f378,
,,,,space,0.8055,,0,312,312,320,1,B, , , , ,space,1500,1.5,611d33f0b3342b0f5fefbb1d,001,2021-08-19_15h10.27.597,natb3,2021.2.3,Win32,30.00930288,611d33f0b3342b0f5fefbb1d,611e07ecdcc96256ae8d5b80,611e663aec5d416aef29f378,
,,,,,,,0,313,313,291,1,X, , , , ,,2000,2,611d33f0b3342b0f5fefbb1d,001,2021-08-19_15h10.27.597,natb3,2021.2.3,Win32,30.00930288,611d33f0b3342b0f5fefbb1d,611e07ecdcc96256ae8d5b80,611e663aec5d416aef29f378,
,,,,space,0.5718,,0,314,314,105,1,R, , , , ,space,2500,2.5,611d33f0b3342b0f5fefbb1d,001,2021-08-19_15h10.27.597,natb3,2021.2.3,Win32,30.00930288,611d33f0b3342b0f5fefbb1d,611e07ecdcc96256ae8d5b80,611e663aec5d416aef29f378,
,,,,,,,0,315,315,271,1,X, , , , ,,2500,2.5,611d33f0b3342b0f5fefbb1d,001,2021-08-19_15h10.27.597,natb3,2021.2.3,Win32,30.00930288,611d33f0b3342b0f5fefbb1d,611e07ecdcc96256ae8d5b80,611e663aec5d416aef29f378,
,,,,space,0.4167,,0,316,316,226,1,R, , , , ,space,2000,2,611d33f0b3342b0f5fefbb1d,001,2021-08-19_15h10.27.597,natb3,2021.2.3,Win32,30.00930288,611d33f0b3342b0f5fefbb1d,611e07ecdcc96256ae8d5b80,611e663aec5d416aef29f378,
,,,,,,,0,317,317,268,1,X,6, ,3, ,,2500,2.5,611d33f0b3342b0f5fefbb1d,001,2021-08-19_15h10.27.597,natb3,2021.2.3,Win32,30.00930288,611d33f0b3342b0f5fefbb1d,611e07ecdcc96256ae8d5b80,611e663aec5d416aef29f378,
,,,,,,,0,318,318,46,1,X, , , , ,,2000,2,611d33f0b3342b0f5fefbb1d,001,2021-08-19_15h10.27.597,natb3,2021.2.3,Win32,30.00930288,611d33f0b3342b0f5fefbb1d,611e07ecdcc96256ae8d5b80,611e663aec5d416aef29f378,
,,,,space,0.5513,,0,319,319,294,1,T, , , , ,space,2000,2,611d33f0b3342b0f5fefbb1d,001,2021-08-19_15h10.27.597,natb3,2021.2.3,Win32,30.00930288,611d33f0b3342b0f5fefbb1d,611e07ecdcc96256ae8d5b80,611e663aec5d416aef29f378,
,,,,space,0.5309,,0,320,320,48,1,A, , , , ,space,2500,2.5,611d33f0b3342b0f5fefbb1d,001,2021-08-19_15h10.27.597,natb3,2021.2.3,Win32,30.00930288,611d33f0b3342b0f5fefbb1d,611e07ecdcc96256ae8d5b80,611e663aec5d416aef29f378,
,,,,space,0.5775,,0,321,321,261,1,T, , , , ,space,2000,2,611d33f0b3342b0f5fefbb1d,001,2021-08-19_15h10.27.597,natb3,2021.2.3,Win32,30.00930288,611d33f0b3342b0f5fefbb1d,611e07ecdcc96256ae8d5b80,611e663aec5d416aef29f378,
,,,,space,0.53,,0,322,322,292,1,E, , , , ,space,2000,2,611d33f0b3342b0f5fefbb1d,001,2021-08-19_15h10.27.597,natb3,2021.2.3,Win32,30.00930288,611d33f0b3342b0f5fefbb1d,611e07ecdcc96256ae8d5b80,611e663aec5d416aef29f378,
,,,,space,0.5708,,0,323,323,299,1,X, , , , ,,2500,2.5,611d33f0b3342b0f5fefbb1d,001,2021-08-19_15h10.27.597,natb3,2021.2.3,Win32,30.00930288,611d33f0b3342b0f5fefbb1d,611e07ecdcc96256ae8d5b80,611e663aec5d416aef29f378,
,,,,,,,0,324,324,78,1,X, , , , ,,2000,2,611d33f0b3342b0f5fefbb1d,001,2021-08-19_15h10.27.597,natb3,2021.2.3,Win32,30.00930288,611d33f0b3342b0f5fefbb1d,611e07ecdcc96256ae8d5b80,611e663aec5d416aef29f378,
,,,,space,0.6095,,0,325,325,267,1,P, , , , ,space,2000,2,611d33f0b3342b0f5fefbb1d,001,2021-08-19_15h10.27.597,natb3,2021.2.3,Win32,30.00930288,611d33f0b3342b0f5fefbb1d,611e07ecdcc96256ae8d5b80,611e663aec5d416aef29f378,
,,,,space,0.5473,,0,326,326,63,1,B, , , , ,space,2000,2,611d33f0b3342b0f5fefbb1d,001,2021-08-19_15h10.27.597,natb3,2021.2.3,Win32,30.00930288,611d33f0b3342b0f5fefbb1d,611e07ecdcc96256ae8d5b80,611e663aec5d416aef29f378,
,,,,,,,0,327,327,33,1,X, , , , ,,1500,1.5,611d33f0b3342b0f5fefbb1d,001,2021-08-19_15h10.27.597,natb3,2021.2.3,Win32,30.00930288,611d33f0b3342b0f5fefbb1d,611e07ecdcc96256ae8d5b80,611e663aec5d416aef29f378,
,,,,space,0.6354,,0,328,328,109,1,U, , , , ,space,1500,1.5,611d33f0b3342b0f5fefbb1d,001,2021-08-19_15h10.27.597,natb3,2021.2.3,Win32,30.00930288,611d33f0b3342b0f5fefbb1d,611e07ecdcc96256ae8d5b80,611e663aec5d416aef29f378,
,,,,space,0.5376,,0,329,329,85,1,F, , , , ,space,2500,2.5,611d33f0b3342b0f5fefbb1d,001,2021-08-19_15h10.27.597,natb3,2021.2.3,Win32,30.00930288,611d33f0b3342b0f5fefbb1d,611e07ecdcc96256ae8d5b80,611e663aec5d416aef29f378,
,,,,space,0.561,,0,330,330,55,1,H, , , , ,space,2500,2.5,611d33f0b3342b0f5fefbb1d,001,2021-08-19_15h10.27.597,natb3,2021.2.3,Win32,30.00930288,611d33f0b3342b0f5fefbb1d,611e07ecdcc96256ae8d5b80,611e663aec5d416aef29f378,
,,,,space,0.6649,,0,331,331,262,1,Y, , , , ,space,2500,2.5,611d33f0b3342b0f5fefbb1d,001,2021-08-19_15h10.27.597,natb3,2021.2.3,Win32,30.00930288,611d33f0b3342b0f5fefbb1d,611e07ecdcc96256ae8d5b80,611e663aec5d416aef29f378,
,,,,space,0.6332,,0,332,332,77,1,O, , , , ,space,2000,2,611d33f0b3342b0f5fefbb1d,001,2021-08-19_15h10.27.597,natb3,2021.2.3,Win32,30.00930288,611d33f0b3342b0f5fefbb1d,611e07ecdcc96256ae8d5b80,611e663aec5d416aef29f378,
,,,,,,,0,333,333,255,1,X, , , , ,,1500,1.5,611d33f0b3342b0f5fefbb1d,001,2021-08-19_15h10.27.597,natb3,2021.2.3,Win32,30.00930288,611d33f0b3342b0f5fefbb1d,611e07ecdcc96256ae8d5b80,611e663aec5d416aef29f378,
,,,,space,0.6978,,0,334,334,290,1,W, , , , ,space,1500,1.5,611d33f0b3342b0f5fefbb1d,001,2021-08-19_15h10.27.597,natb3,2021.2.3,Win32,30.00930288,611d33f0b3342b0f5fefbb1d,611e07ecdcc96256ae8d5b80,611e663aec5d416aef29f378,
,,,,,,,0,335,335,200,1,X,7, ,5,3,,1500,1.5,611d33f0b3342b0f5fefbb1d,001,2021-08-19_15h10.27.597,natb3,2021.2.3,Win32,30.00930288,611d33f0b3342b0f5fefbb1d,611e07ecdcc96256ae8d5b80,611e663aec5d416aef29f378,
