key_resp_2.keys,key_resp_2.rt,key_resp_3.keys,key_resp_3.rt,key_resp.keys,key_resp.rt,key_resp_4.keys,trials.thisRepN,trials.thisTrialN,trials.thisN,trials.thisIndex,trials.ran,stimulus,distractor1,distractor2,distractor3,distractor4,CorrAns,isi_duration,isi_dur_in_seconds,participant,session,date,expName,psychopyVersion,OS,frameRate,PROLIFIC_PID,STUDY_ID,SESSION_ID,key_resp_4.rt
return,10.3204,space,24.5735,space,0.5946,,0,0,0,77,1,O, , , , ,space,2000,2,611e508f1ded92caed24fc5b,001,2021-08-19_15h34.27.839,natb3,2021.2.3,MacIntel,60.0024001,611e508f1ded92caed24fc5b,611e07ecdcc96256ae8d5b80,611e6bdd611589be4eeb9c15,
,,,,space,0.4093,,0,1,1,232,1,O, , , , ,space,2500,2.5,611e508f1ded92caed24fc5b,001,2021-08-19_15h34.27.839,natb3,2021.2.3,MacIntel,60.0024001,611e508f1ded92caed24fc5b,611e07ecdcc96256ae8d5b80,611e6bdd611589be4eeb9c15,
,,,,,,,0,2,2,168,1,X, , , , ,,2500,2.5,611e508f1ded92caed24fc5b,001,2021-08-19_15h34.27.839,natb3,2021.2.3,MacIntel,60.0024001,611e508f1ded92caed24fc5b,611e07ecdcc96256ae8d5b80,611e6bdd611589be4eeb9c15,
,,,,space,0.4331,,0,3,3,25,1,Z, , , , ,space,2500,2.5,611e508f1ded92caed24fc5b,001,2021-08-19_15h34.27.839,natb3,2021.2.3,MacIntel,60.0024001,611e508f1ded92caed24fc5b,611e07ecdcc96256ae8d5b80,611e6bdd611589be4eeb9c15,
,,,,space,0.2677,,0,4,4,53,1,G, , , , ,space,2500,2.5,611e508f1ded92caed24fc5b,001,2021-08-19_15h34.27.839,natb3,2021.2.3,MacIntel,60.0024001,611e508f1ded92caed24fc5b,611e07ecdcc96256ae8d5b80,611e6bdd611589be4eeb9c15,
,,,,space,0.3471,,0,5,5,61,1,C, , , , ,space,2000,2,611e508f1ded92caed24fc5b,001,2021-08-19_15h34.27.839,natb3,2021.2.3,MacIntel,60.0024001,611e508f1ded92caed24fc5b,611e07ecdcc96256ae8d5b80,611e6bdd611589be4eeb9c15,
,,,,space,0.4002,,0,6,6,155,1,O, , , , ,space,1500,1.5,611e508f1ded92caed24fc5b,001,2021-08-19_15h34.27.839,natb3,2021.2.3,MacIntel,60.0024001,611e508f1ded92caed24fc5b,611e07ecdcc96256ae8d5b80,611e6bdd611589be4eeb9c15,
,,,,space,0.3988,,0,7,7,307,1,F, , , , ,space,2500,2.5,611e508f1ded92caed24fc5b,001,2021-08-19_15h34.27.839,natb3,2021.2.3,MacIntel,60.0024001,611e508f1ded92caed24fc5b,611e07ecdcc96256ae8d5b80,611e6bdd611589be4eeb9c15,
,,,,space,0.3742,,0,8,8,292,1,E, , , , ,space,2000,2,611e508f1ded92caed24fc5b,001,2021-08-19_15h34.27.839,natb3,2021.2.3,MacIntel,60.0024001,611e508f1ded92caed24fc5b,611e07ecdcc96256ae8d5b80,611e6bdd611589be4eeb9c15,
,,,,space,0.2748,,0,9,9,35,1,X, , , , ,,2500,2.5,611e508f1ded92caed24fc5b,001,2021-08-19_15h34.27.839,natb3,2021.2.3,MacIntel,60.0024001,611e508f1ded92caed24fc5b,611e07ecdcc96256ae8d5b80,611e6bdd611589be4eeb9c15,
,,,,space,0.7309,,0,10,10,56,1,J, , , , ,space,1500,1.5,611e508f1ded92caed24fc5b,001,2021-08-19_15h34.27.839,natb3,2021.2.3,MacIntel,60.0024001,611e508f1ded92caed24fc5b,611e07ecdcc96256ae8d5b80,611e6bdd611589be4eeb9c15,
,,,,space,0.6994,,0,11,11,173,1,V, , , , ,space,1500,1.5,611e508f1ded92caed24fc5b,001,2021-08-19_15h34.27.839,natb3,2021.2.3,MacIntel,60.0024001,611e508f1ded92caed24fc5b,611e07ecdcc96256ae8d5b80,611e6bdd611589be4eeb9c15,
,,,,space,0.4505,,0,12,12,217,1,T, , , , ,space,2500,2.5,611e508f1ded92caed24fc5b,001,2021-08-19_15h34.27.839,natb3,2021.2.3,MacIntel,60.0024001,611e508f1ded92caed24fc5b,611e07ecdcc96256ae8d5b80,611e6bdd611589be4eeb9c15,
,,,,space,0.4407,,0,13,13,238,1,D, , , , ,space,1500,1.5,611e508f1ded92caed24fc5b,001,2021-08-19_15h34.27.839,natb3,2021.2.3,MacIntel,60.0024001,611e508f1ded92caed24fc5b,611e07ecdcc96256ae8d5b80,611e6bdd611589be4eeb9c15,
,,,,,,,0,14,14,60,1,X,7,3,5, ,,1500,1.5,611e508f1ded92caed24fc5b,001,2021-08-19_15h34.27.839,natb3,2021.2.3,MacIntel,60.0024001,611e508f1ded92caed24fc5b,611e07ecdcc96256ae8d5b80,611e6bdd611589be4eeb9c15,
,,,,space,0.5138,,0,15,15,108,1,Y, , , , ,space,2500,2.5,611e508f1ded92caed24fc5b,001,2021-08-19_15h34.27.839,natb3,2021.2.3,MacIntel,60.0024001,611e508f1ded92caed24fc5b,611e07ecdcc96256ae8d5b80,611e6bdd611589be4eeb9c15,
,,,,space,0.5082,,0,16,16,120,1,U, , , , ,space,1500,1.5,611e508f1ded92caed24fc5b,001,2021-08-19_15h34.27.839,natb3,2021.2.3,MacIntel,60.0024001,611e508f1ded92caed24fc5b,611e07ecdcc96256ae8d5b80,611e6bdd611589be4eeb9c15,
,,,,,,,0,17,17,213,1,X, , , , ,,2500,2.5,611e508f1ded92caed24fc5b,001,2021-08-19_15h34.27.839,natb3,2021.2.3,MacIntel,60.0024001,611e508f1ded92caed24fc5b,611e07ecdcc96256ae8d5b80,611e6bdd611589be4eeb9c15,
,,,,space,0.4636,,0,18,18,275,1,G, , , , ,space,1500,1.5,611e508f1ded92caed24fc5b,001,2021-08-19_15h34.27.839,natb3,2021.2.3,MacIntel,60.0024001,611e508f1ded92caed24fc5b,611e07ecdcc96256ae8d5b80,611e6bdd611589be4eeb9c15,
,,,,space,0.4086,,0,19,19,165,1,J, , , , ,space,2500,2.5,611e508f1ded92caed24fc5b,001,2021-08-19_15h34.27.839,natb3,2021.2.3,MacIntel,60.0024001,611e508f1ded92caed24fc5b,611e07ecdcc96256ae8d5b80,611e6bdd611589be4eeb9c15,
,,,,space,0.4637,,0,20,20,293,1,R, , , , ,space,2500,2.5,611e508f1ded92caed24fc5b,001,2021-08-19_15h34.27.839,natb3,2021.2.3,MacIntel,60.0024001,611e508f1ded92caed24fc5b,611e07ecdcc96256ae8d5b80,611e6bdd611589be4eeb9c15,
,,,,,,,0,21,21,218,1,X,1,3, ,8,,1500,1.5,611e508f1ded92caed24fc5b,001,2021-08-19_15h34.27.839,natb3,2021.2.3,MacIntel,60.0024001,611e508f1ded92caed24fc5b,611e07ecdcc96256ae8d5b80,611e6bdd611589be4eeb9c15,
,,,,,,,0,22,22,31,1,X, , , , ,,1500,1.5,611e508f1ded92caed24fc5b,001,2021-08-19_15h34.27.839,natb3,2021.2.3,MacIntel,60.0024001,611e508f1ded92caed24fc5b,611e07ecdcc96256ae8d5b80,611e6bdd611589be4eeb9c15,
,,,,,,,0,23,23,107,1,X,9,3, ,2,,2000,2,611e508f1ded92caed24fc5b,001,2021-08-19_15h34.27.839,natb3,2021.2.3,MacIntel,60.0024001,611e508f1ded92caed24fc5b,611e07ecdcc96256ae8d5b80,611e6bdd611589be4eeb9c15,
,,,,space,0.5082,,0,24,24,265,1,I, , , , ,space,2000,2,611e508f1ded92caed24fc5b,001,2021-08-19_15h34.27.839,natb3,2021.2.3,MacIntel,60.0024001,611e508f1ded92caed24fc5b,611e07ecdcc96256ae8d5b80,611e6bdd611589be4eeb9c15,
,,,,space,0.4914,,0,25,25,68,1,W, , , , ,space,2500,2.5,611e508f1ded92caed24fc5b,001,2021-08-19_15h34.27.839,natb3,2021.2.3,MacIntel,60.0024001,611e508f1ded92caed24fc5b,611e07ecdcc96256ae8d5b80,611e6bdd611589be4eeb9c15,
,,,,space,0.36,,0,26,26,34,1,Q, , , , ,space,2500,2.5,611e508f1ded92caed24fc5b,001,2021-08-19_15h34.27.839,natb3,2021.2.3,MacIntel,60.0024001,611e508f1ded92caed24fc5b,611e07ecdcc96256ae8d5b80,611e6bdd611589be4eeb9c15,
,,,,space,0.3746,,0,27,27,203,1,X, , , , ,,2500,2.5,611e508f1ded92caed24fc5b,001,2021-08-19_15h34.27.839,natb3,2021.2.3,MacIntel,60.0024001,611e508f1ded92caed24fc5b,611e07ecdcc96256ae8d5b80,611e6bdd611589be4eeb9c15,
,,,,,,,0,28,28,282,1,X, , , , ,,2500,2.5,611e508f1ded92caed24fc5b,001,2021-08-19_15h34.27.839,natb3,2021.2.3,MacIntel,60.0024001,611e508f1ded92caed24fc5b,611e07ecdcc96256ae8d5b80,611e6bdd611589be4eeb9c15,
,,,,space,0.3996,,0,29,29,140,1,B, , , , ,space,2500,2.5,611e508f1ded92caed24fc5b,001,2021-08-19_15h34.27.839,natb3,2021.2.3,MacIntel,60.0024001,611e508f1ded92caed24fc5b,611e07ecdcc96256ae8d5b80,611e6bdd611589be4eeb9c15,
,,,,,,,0,30,30,43,1,X, ,6, ,2,,2500,2.5,611e508f1ded92caed24fc5b,001,2021-08-19_15h34.27.839,natb3,2021.2.3,MacIntel,60.0024001,611e508f1ded92caed24fc5b,611e07ecdcc96256ae8d5b80,611e6bdd611589be4eeb9c15,
,,,,space,0.5406,,0,31,31,28,1,V, , , , ,space,1500,1.5,611e508f1ded92caed24fc5b,001,2021-08-19_15h34.27.839,natb3,2021.2.3,MacIntel,60.0024001,611e508f1ded92caed24fc5b,611e07ecdcc96256ae8d5b80,611e6bdd611589be4eeb9c15,
,,,,space,0.5005,,0,32,32,317,1,C, , , , ,space,2000,2,611e508f1ded92caed24fc5b,001,2021-08-19_15h34.27.839,natb3,2021.2.3,MacIntel,60.0024001,611e508f1ded92caed24fc5b,611e07ecdcc96256ae8d5b80,611e6bdd611589be4eeb9c15,
,,,,,,,0,33,33,248,1,X, ,1,5, ,,1500,1.5,611e508f1ded92caed24fc5b,001,2021-08-19_15h34.27.839,natb3,2021.2.3,MacIntel,60.0024001,611e508f1ded92caed24fc5b,611e07ecdcc96256ae8d5b80,611e6bdd611589be4eeb9c15,
,,,,space,0.4266,,0,34,34,310,1,J, , , , ,space,2500,2.5,611e508f1ded92caed24fc5b,001,2021-08-19_15h34.27.839,natb3,2021.2.3,MacIntel,60.0024001,611e508f1ded92caed24fc5b,611e07ecdcc96256ae8d5b80,611e6bdd611589be4eeb9c15,
,,,,space,0.467,,0,35,35,41,1,Y, , , , ,space,2500,2.5,611e508f1ded92caed24fc5b,001,2021-08-19_15h34.27.839,natb3,2021.2.3,MacIntel,60.0024001,611e508f1ded92caed24fc5b,611e07ecdcc96256ae8d5b80,611e6bdd611589be4eeb9c15,
,,,,space,0.3749,,0,36,36,87,1,H, , , , ,space,1500,1.5,611e508f1ded92caed24fc5b,001,2021-08-19_15h34.27.839,natb3,2021.2.3,MacIntel,60.0024001,611e508f1ded92caed24fc5b,611e07ecdcc96256ae8d5b80,611e6bdd611589be4eeb9c15,
,,,,space,0.4507,,0,37,37,285,1,B, , , , ,space,1500,1.5,611e508f1ded92caed24fc5b,001,2021-08-19_15h34.27.839,natb3,2021.2.3,MacIntel,60.0024001,611e508f1ded92caed24fc5b,611e07ecdcc96256ae8d5b80,611e6bdd611589be4eeb9c15,
,,,,space,0.426,,0,38,38,208,1,B, , , , ,space,1500,1.5,611e508f1ded92caed24fc5b,001,2021-08-19_15h34.27.839,natb3,2021.2.3,MacIntel,60.0024001,611e508f1ded92caed24fc5b,611e07ecdcc96256ae8d5b80,611e6bdd611589be4eeb9c15,
,,,,space,0.3772,,0,39,39,50,1,D, , , , ,space,1500,1.5,611e508f1ded92caed24fc5b,001,2021-08-19_15h34.27.839,natb3,2021.2.3,MacIntel,60.0024001,611e508f1ded92caed24fc5b,611e07ecdcc96256ae8d5b80,611e6bdd611589be4eeb9c15,
,,,,space,0.3772,,0,40,40,16,1,D, , , , ,space,1500,1.5,611e508f1ded92caed24fc5b,001,2021-08-19_15h34.27.839,natb3,2021.2.3,MacIntel,60.0024001,611e508f1ded92caed24fc5b,611e07ecdcc96256ae8d5b80,611e6bdd611589be4eeb9c15,
,,,,space,0.4797,,0,41,41,320,1,B, , , , ,space,1500,1.5,611e508f1ded92caed24fc5b,001,2021-08-19_15h34.27.839,natb3,2021.2.3,MacIntel,60.0024001,611e508f1ded92caed24fc5b,611e07ecdcc96256ae8d5b80,611e6bdd611589be4eeb9c15,
,,,,space,0.4173,,0,42,42,97,1,B, , , , ,space,2500,2.5,611e508f1ded92caed24fc5b,001,2021-08-19_15h34.27.839,natb3,2021.2.3,MacIntel,60.0024001,611e508f1ded92caed24fc5b,611e07ecdcc96256ae8d5b80,611e6bdd611589be4eeb9c15,
,,,,space,0.3672,,0,43,43,75,1,U, , , , ,space,1500,1.5,611e508f1ded92caed24fc5b,001,2021-08-19_15h34.27.839,natb3,2021.2.3,MacIntel,60.0024001,611e508f1ded92caed24fc5b,611e07ecdcc96256ae8d5b80,611e6bdd611589be4eeb9c15,
,,,,space,0.4256,,0,44,44,85,1,F, , , , ,space,2500,2.5,611e508f1ded92caed24fc5b,001,2021-08-19_15h34.27.839,natb3,2021.2.3,MacIntel,60.0024001,611e508f1ded92caed24fc5b,611e07ecdcc96256ae8d5b80,611e6bdd611589be4eeb9c15,
,,,,space,0.3484,,0,45,45,237,1,S, , , , ,space,1500,1.5,611e508f1ded92caed24fc5b,001,2021-08-19_15h34.27.839,natb3,2021.2.3,MacIntel,60.0024001,611e508f1ded92caed24fc5b,611e07ecdcc96256ae8d5b80,611e6bdd611589be4eeb9c15,
,,,,space,0.4416,,0,46,46,36,1,W, , , , ,space,2000,2,611e508f1ded92caed24fc5b,001,2021-08-19_15h34.27.839,natb3,2021.2.3,MacIntel,60.0024001,611e508f1ded92caed24fc5b,611e07ecdcc96256ae8d5b80,611e6bdd611589be4eeb9c15,
,,,,space,0.3984,,0,47,47,249,1,C, , , , ,space,2000,2,611e508f1ded92caed24fc5b,001,2021-08-19_15h34.27.839,natb3,2021.2.3,MacIntel,60.0024001,611e508f1ded92caed24fc5b,611e07ecdcc96256ae8d5b80,611e6bdd611589be4eeb9c15,
,,,,space,0.3933,,0,48,48,235,1,A, , , , ,space,1500,1.5,611e508f1ded92caed24fc5b,001,2021-08-19_15h34.27.839,natb3,2021.2.3,MacIntel,60.0024001,611e508f1ded92caed24fc5b,611e07ecdcc96256ae8d5b80,611e6bdd611589be4eeb9c15,
,,,,,,,0,49,49,200,1,X,7, ,5,3,,1500,1.5,611e508f1ded92caed24fc5b,001,2021-08-19_15h34.27.839,natb3,2021.2.3,MacIntel,60.0024001,611e508f1ded92caed24fc5b,611e07ecdcc96256ae8d5b80,611e6bdd611589be4eeb9c15,
,,,,space,0.332,,0,50,50,92,1,Z, , , , ,space,1500,1.5,611e508f1ded92caed24fc5b,001,2021-08-19_15h34.27.839,natb3,2021.2.3,MacIntel,60.0024001,611e508f1ded92caed24fc5b,611e07ecdcc96256ae8d5b80,611e6bdd611589be4eeb9c15,
,,,,space,0.3423,,0,51,51,243,1,X, , , , ,,2500,2.5,611e508f1ded92caed24fc5b,001,2021-08-19_15h34.27.839,natb3,2021.2.3,MacIntel,60.0024001,611e508f1ded92caed24fc5b,611e07ecdcc96256ae8d5b80,611e6bdd611589be4eeb9c15,
,,,,space,0.5252,,0,52,52,154,1,I, , , , ,space,2500,2.5,611e508f1ded92caed24fc5b,001,2021-08-19_15h34.27.839,natb3,2021.2.3,MacIntel,60.0024001,611e508f1ded92caed24fc5b,611e07ecdcc96256ae8d5b80,611e6bdd611589be4eeb9c15,
,,,,,,,0,53,53,302,1,X, , , , ,,2000,2,611e508f1ded92caed24fc5b,001,2021-08-19_15h34.27.839,natb3,2021.2.3,MacIntel,60.0024001,611e508f1ded92caed24fc5b,611e07ecdcc96256ae8d5b80,611e6bdd611589be4eeb9c15,
,,,,space,0.5266,,0,54,54,324,1,Q, , , , ,space,2000,2,611e508f1ded92caed24fc5b,001,2021-08-19_15h34.27.839,natb3,2021.2.3,MacIntel,60.0024001,611e508f1ded92caed24fc5b,611e07ecdcc96256ae8d5b80,611e6bdd611589be4eeb9c15,
,,,,space,0.4755,,0,55,55,283,1,C, , , , ,space,1500,1.5,611e508f1ded92caed24fc5b,001,2021-08-19_15h34.27.839,natb3,2021.2.3,MacIntel,60.0024001,611e508f1ded92caed24fc5b,611e07ecdcc96256ae8d5b80,611e6bdd611589be4eeb9c15,
,,,,space,0.5003,,0,56,56,6,1,Y, , , , ,space,2500,2.5,611e508f1ded92caed24fc5b,001,2021-08-19_15h34.27.839,natb3,2021.2.3,MacIntel,60.0024001,611e508f1ded92caed24fc5b,611e07ecdcc96256ae8d5b80,611e6bdd611589be4eeb9c15,
,,,,space,0.475,,0,57,57,300,1,O, , , , ,space,2500,2.5,611e508f1ded92caed24fc5b,001,2021-08-19_15h34.27.839,natb3,2021.2.3,MacIntel,60.0024001,611e508f1ded92caed24fc5b,611e07ecdcc96256ae8d5b80,611e6bdd611589be4eeb9c15,
,,,,space,0.5482,,0,58,58,22,1,K, , , , ,space,2000,2,611e508f1ded92caed24fc5b,001,2021-08-19_15h34.27.839,natb3,2021.2.3,MacIntel,60.0024001,611e508f1ded92caed24fc5b,611e07ecdcc96256ae8d5b80,611e6bdd611589be4eeb9c15,
,,,,space,0.4582,,0,59,59,117,1,T, , , , ,space,2500,2.5,611e508f1ded92caed24fc5b,001,2021-08-19_15h34.27.839,natb3,2021.2.3,MacIntel,60.0024001,611e508f1ded92caed24fc5b,611e07ecdcc96256ae8d5b80,611e6bdd611589be4eeb9c15,
,,,,,,,0,60,60,18,1,X, ,2,5,8,,2500,2.5,611e508f1ded92caed24fc5b,001,2021-08-19_15h34.27.839,natb3,2021.2.3,MacIntel,60.0024001,611e508f1ded92caed24fc5b,611e07ecdcc96256ae8d5b80,611e6bdd611589be4eeb9c15,
,,,,,,,0,61,61,259,1,X,8, , ,3,,2500,2.5,611e508f1ded92caed24fc5b,001,2021-08-19_15h34.27.839,natb3,2021.2.3,MacIntel,60.0024001,611e508f1ded92caed24fc5b,611e07ecdcc96256ae8d5b80,611e6bdd611589be4eeb9c15,
,,,,space,0.4787,,0,62,62,226,1,R, , , , ,space,2000,2,611e508f1ded92caed24fc5b,001,2021-08-19_15h34.27.839,natb3,2021.2.3,MacIntel,60.0024001,611e508f1ded92caed24fc5b,611e07ecdcc96256ae8d5b80,611e6bdd611589be4eeb9c15,
,,,,space,0.5116,,0,63,63,206,1,V, , , , ,space,2000,2,611e508f1ded92caed24fc5b,001,2021-08-19_15h34.27.839,natb3,2021.2.3,MacIntel,60.0024001,611e508f1ded92caed24fc5b,611e07ecdcc96256ae8d5b80,611e6bdd611589be4eeb9c15,
,,,,,,,0,64,64,271,1,X, , , , ,,2500,2.5,611e508f1ded92caed24fc5b,001,2021-08-19_15h34.27.839,natb3,2021.2.3,MacIntel,60.0024001,611e508f1ded92caed24fc5b,611e07ecdcc96256ae8d5b80,611e6bdd611589be4eeb9c15,
,,,,space,0.5086,,0,65,65,170,1,Z, , , , ,space,2000,2,611e508f1ded92caed24fc5b,001,2021-08-19_15h34.27.839,natb3,2021.2.3,MacIntel,60.0024001,611e508f1ded92caed24fc5b,611e07ecdcc96256ae8d5b80,611e6bdd611589be4eeb9c15,
,,,,,,,0,66,66,27,1,X,5, ,1,3,,1500,1.5,611e508f1ded92caed24fc5b,001,2021-08-19_15h34.27.839,natb3,2021.2.3,MacIntel,60.0024001,611e508f1ded92caed24fc5b,611e07ecdcc96256ae8d5b80,611e6bdd611589be4eeb9c15,
,,,,,,,0,67,67,4,1,X, , , , ,,2000,2,611e508f1ded92caed24fc5b,001,2021-08-19_15h34.27.839,natb3,2021.2.3,MacIntel,60.0024001,611e508f1ded92caed24fc5b,611e07ecdcc96256ae8d5b80,611e6bdd611589be4eeb9c15,
,,,,space,0.4164,,0,68,68,156,1,P, , , , ,space,1500,1.5,611e508f1ded92caed24fc5b,001,2021-08-19_15h34.27.839,natb3,2021.2.3,MacIntel,60.0024001,611e508f1ded92caed24fc5b,611e07ecdcc96256ae8d5b80,611e6bdd611589be4eeb9c15,
,,,,space,0.499,,0,69,69,157,1,A, , , , ,space,2500,2.5,611e508f1ded92caed24fc5b,001,2021-08-19_15h34.27.839,natb3,2021.2.3,MacIntel,60.0024001,611e508f1ded92caed24fc5b,611e07ecdcc96256ae8d5b80,611e6bdd611589be4eeb9c15,
,,,,space,0.4334,,0,70,70,112,1,Q, , , , ,space,2500,2.5,611e508f1ded92caed24fc5b,001,2021-08-19_15h34.27.839,natb3,2021.2.3,MacIntel,60.0024001,611e508f1ded92caed24fc5b,611e07ecdcc96256ae8d5b80,611e6bdd611589be4eeb9c15,
,,,,space,0.4322,,0,71,71,58,1,L, , , , ,space,2000,2,611e508f1ded92caed24fc5b,001,2021-08-19_15h34.27.839,natb3,2021.2.3,MacIntel,60.0024001,611e508f1ded92caed24fc5b,611e07ecdcc96256ae8d5b80,611e6bdd611589be4eeb9c15,
,,,,space,0.5336,,0,72,72,308,1,G, , , , ,space,1500,1.5,611e508f1ded92caed24fc5b,001,2021-08-19_15h34.27.839,natb3,2021.2.3,MacIntel,60.0024001,611e508f1ded92caed24fc5b,611e07ecdcc96256ae8d5b80,611e6bdd611589be4eeb9c15,
,,,,space,0.3925,,0,73,73,241,1,G, , , , ,space,2500,2.5,611e508f1ded92caed24fc5b,001,2021-08-19_15h34.27.839,natb3,2021.2.3,MacIntel,60.0024001,611e508f1ded92caed24fc5b,611e07ecdcc96256ae8d5b80,611e6bdd611589be4eeb9c15,
,,,,,,,0,74,74,179,1,X, ,9, ,2,,1500,1.5,611e508f1ded92caed24fc5b,001,2021-08-19_15h34.27.839,natb3,2021.2.3,MacIntel,60.0024001,611e508f1ded92caed24fc5b,611e07ecdcc96256ae8d5b80,611e6bdd611589be4eeb9c15,
,,,,space,0.4936,,0,75,75,186,1,U, , , , ,space,2500,2.5,611e508f1ded92caed24fc5b,001,2021-08-19_15h34.27.839,natb3,2021.2.3,MacIntel,60.0024001,611e508f1ded92caed24fc5b,611e07ecdcc96256ae8d5b80,611e6bdd611589be4eeb9c15,
,,,,,,,0,76,76,84,1,X, , , , ,,2000,2,611e508f1ded92caed24fc5b,001,2021-08-19_15h34.27.839,natb3,2021.2.3,MacIntel,60.0024001,611e508f1ded92caed24fc5b,611e07ecdcc96256ae8d5b80,611e6bdd611589be4eeb9c15,
,,,,space,0.4423,,0,77,77,121,1,I, , , , ,space,2000,2,611e508f1ded92caed24fc5b,001,2021-08-19_15h34.27.839,natb3,2021.2.3,MacIntel,60.0024001,611e508f1ded92caed24fc5b,611e07ecdcc96256ae8d5b80,611e6bdd611589be4eeb9c15,
,,,,space,0.4742,,0,78,78,79,1,P, , , , ,space,2000,2,611e508f1ded92caed24fc5b,001,2021-08-19_15h34.27.839,natb3,2021.2.3,MacIntel,60.0024001,611e508f1ded92caed24fc5b,611e07ecdcc96256ae8d5b80,611e6bdd611589be4eeb9c15,
,,,,space,0.3929,,0,79,79,134,1,J, , , , ,space,2000,2,611e508f1ded92caed24fc5b,001,2021-08-19_15h34.27.839,natb3,2021.2.3,MacIntel,60.0024001,611e508f1ded92caed24fc5b,611e07ecdcc96256ae8d5b80,611e6bdd611589be4eeb9c15,
,,,,space,0.5069,,0,80,80,167,1,K, , , , ,space,1500,1.5,611e508f1ded92caed24fc5b,001,2021-08-19_15h34.27.839,natb3,2021.2.3,MacIntel,60.0024001,611e508f1ded92caed24fc5b,611e07ecdcc96256ae8d5b80,611e6bdd611589be4eeb9c15,
,,,,space,0.3605,,0,81,81,115,1,R, , , , ,space,1500,1.5,611e508f1ded92caed24fc5b,001,2021-08-19_15h34.27.839,natb3,2021.2.3,MacIntel,60.0024001,611e508f1ded92caed24fc5b,611e07ecdcc96256ae8d5b80,611e6bdd611589be4eeb9c15,
,,,,,,,0,82,82,255,1,X, , , , ,,1500,1.5,611e508f1ded92caed24fc5b,001,2021-08-19_15h34.27.839,natb3,2021.2.3,MacIntel,60.0024001,611e508f1ded92caed24fc5b,611e07ecdcc96256ae8d5b80,611e6bdd611589be4eeb9c15,
,,,,space,0.3143,,0,83,83,256,1,Q, , , , ,space,2000,2,611e508f1ded92caed24fc5b,001,2021-08-19_15h34.27.839,natb3,2021.2.3,MacIntel,60.0024001,611e508f1ded92caed24fc5b,611e07ecdcc96256ae8d5b80,611e6bdd611589be4eeb9c15,
,,,,,,,0,84,84,311,1,X,1,2,7,3,,2500,2.5,611e508f1ded92caed24fc5b,001,2021-08-19_15h34.27.839,natb3,2021.2.3,MacIntel,60.0024001,611e508f1ded92caed24fc5b,611e07ecdcc96256ae8d5b80,611e6bdd611589be4eeb9c15,
,,,,space,0.4738,,0,85,85,83,1,D, , , , ,space,2000,2,611e508f1ded92caed24fc5b,001,2021-08-19_15h34.27.839,natb3,2021.2.3,MacIntel,60.0024001,611e508f1ded92caed24fc5b,611e07ecdcc96256ae8d5b80,611e6bdd611589be4eeb9c15,
,,,,space,0.7003,,0,86,86,281,1,Z, , , , ,space,1500,1.5,611e508f1ded92caed24fc5b,001,2021-08-19_15h34.27.839,natb3,2021.2.3,MacIntel,60.0024001,611e508f1ded92caed24fc5b,611e07ecdcc96256ae8d5b80,611e6bdd611589be4eeb9c15,
,,,,,,,0,87,87,175,1,X,7, ,4,2,,1500,1.5,611e508f1ded92caed24fc5b,001,2021-08-19_15h34.27.839,natb3,2021.2.3,MacIntel,60.0024001,611e508f1ded92caed24fc5b,611e07ecdcc96256ae8d5b80,611e6bdd611589be4eeb9c15,
,,,,space,0.5935,,0,88,88,29,1,B, , , , ,space,1500,1.5,611e508f1ded92caed24fc5b,001,2021-08-19_15h34.27.839,natb3,2021.2.3,MacIntel,60.0024001,611e508f1ded92caed24fc5b,611e07ecdcc96256ae8d5b80,611e6bdd611589be4eeb9c15,
,,,,,,,0,89,89,69,1,X, , , , ,,1500,1.5,611e508f1ded92caed24fc5b,001,2021-08-19_15h34.27.839,natb3,2021.2.3,MacIntel,60.0024001,611e508f1ded92caed24fc5b,611e07ecdcc96256ae8d5b80,611e6bdd611589be4eeb9c15,
,,,,space,0.4165,,0,90,90,254,1,M, , , , ,space,1500,1.5,611e508f1ded92caed24fc5b,001,2021-08-19_15h34.27.839,natb3,2021.2.3,MacIntel,60.0024001,611e508f1ded92caed24fc5b,611e07ecdcc96256ae8d5b80,611e6bdd611589be4eeb9c15,
,,,,space,0.4834,,0,91,91,284,1,V, , , , ,space,2500,2.5,611e508f1ded92caed24fc5b,001,2021-08-19_15h34.27.839,natb3,2021.2.3,MacIntel,60.0024001,611e508f1ded92caed24fc5b,611e07ecdcc96256ae8d5b80,611e6bdd611589be4eeb9c15,
,,,,space,0.4081,,0,92,92,159,1,S, , , , ,space,2500,2.5,611e508f1ded92caed24fc5b,001,2021-08-19_15h34.27.839,natb3,2021.2.3,MacIntel,60.0024001,611e508f1ded92caed24fc5b,611e07ecdcc96256ae8d5b80,611e6bdd611589be4eeb9c15,
,,,,space,0.4427,,0,93,93,37,1,E, , , , ,space,2500,2.5,611e508f1ded92caed24fc5b,001,2021-08-19_15h34.27.839,natb3,2021.2.3,MacIntel,60.0024001,611e508f1ded92caed24fc5b,611e07ecdcc96256ae8d5b80,611e6bdd611589be4eeb9c15,
,,,,space,0.4093,,0,94,94,54,1,X, , , , ,,2000,2,611e508f1ded92caed24fc5b,001,2021-08-19_15h34.27.839,natb3,2021.2.3,MacIntel,60.0024001,611e508f1ded92caed24fc5b,611e07ecdcc96256ae8d5b80,611e6bdd611589be4eeb9c15,
,,,,,,,0,95,95,125,1,X, , , , ,,2000,2,611e508f1ded92caed24fc5b,001,2021-08-19_15h34.27.839,natb3,2021.2.3,MacIntel,60.0024001,611e508f1ded92caed24fc5b,611e07ecdcc96256ae8d5b80,611e6bdd611589be4eeb9c15,
,,,,space,0.5163,,0,96,96,106,1,T, , , , ,space,1500,1.5,611e508f1ded92caed24fc5b,001,2021-08-19_15h34.27.839,natb3,2021.2.3,MacIntel,60.0024001,611e508f1ded92caed24fc5b,611e07ecdcc96256ae8d5b80,611e6bdd611589be4eeb9c15,
,,,,,,,0,97,97,166,1,X, , , , ,,2000,2,611e508f1ded92caed24fc5b,001,2021-08-19_15h34.27.839,natb3,2021.2.3,MacIntel,60.0024001,611e508f1ded92caed24fc5b,611e07ecdcc96256ae8d5b80,611e6bdd611589be4eeb9c15,
,,,,space,0.4347,,0,98,98,5,1,T, , , , ,space,2000,2,611e508f1ded92caed24fc5b,001,2021-08-19_15h34.27.839,natb3,2021.2.3,MacIntel,60.0024001,611e508f1ded92caed24fc5b,611e07ecdcc96256ae8d5b80,611e6bdd611589be4eeb9c15,
,,,,space,0.4997,,0,99,99,250,1,V, , , , ,space,2000,2,611e508f1ded92caed24fc5b,001,2021-08-19_15h34.27.839,natb3,2021.2.3,MacIntel,60.0024001,611e508f1ded92caed24fc5b,611e07ecdcc96256ae8d5b80,611e6bdd611589be4eeb9c15,
,,,,space,0.477,,0,100,100,136,1,Z, , , , ,space,2500,2.5,611e508f1ded92caed24fc5b,001,2021-08-19_15h34.27.839,natb3,2021.2.3,MacIntel,60.0024001,611e508f1ded92caed24fc5b,611e07ecdcc96256ae8d5b80,611e6bdd611589be4eeb9c15,
,,,,space,0.5172,,0,101,101,183,1,R, , , , ,space,1500,1.5,611e508f1ded92caed24fc5b,001,2021-08-19_15h34.27.839,natb3,2021.2.3,MacIntel,60.0024001,611e508f1ded92caed24fc5b,611e07ecdcc96256ae8d5b80,611e6bdd611589be4eeb9c15,
,,,,space,0.5004,,0,102,102,40,1,T, , , , ,space,1500,1.5,611e508f1ded92caed24fc5b,001,2021-08-19_15h34.27.839,natb3,2021.2.3,MacIntel,60.0024001,611e508f1ded92caed24fc5b,611e07ecdcc96256ae8d5b80,611e6bdd611589be4eeb9c15,
,,,,,,,0,103,103,82,1,X,4,6,1,7,,2000,2,611e508f1ded92caed24fc5b,001,2021-08-19_15h34.27.839,natb3,2021.2.3,MacIntel,60.0024001,611e508f1ded92caed24fc5b,611e07ecdcc96256ae8d5b80,611e6bdd611589be4eeb9c15,
,,,,,,,0,104,104,229,1,X,8, ,2,6,,2500,2.5,611e508f1ded92caed24fc5b,001,2021-08-19_15h34.27.839,natb3,2021.2.3,MacIntel,60.0024001,611e508f1ded92caed24fc5b,611e07ecdcc96256ae8d5b80,611e6bdd611589be4eeb9c15,
,,,,space,0.448,,0,105,105,321,1,N, , , , ,space,2000,2,611e508f1ded92caed24fc5b,001,2021-08-19_15h34.27.839,natb3,2021.2.3,MacIntel,60.0024001,611e508f1ded92caed24fc5b,611e07ecdcc96256ae8d5b80,611e6bdd611589be4eeb9c15,
,,,,space,0.6176,,0,106,106,258,1,E, , , , ,space,1500,1.5,611e508f1ded92caed24fc5b,001,2021-08-19_15h34.27.839,natb3,2021.2.3,MacIntel,60.0024001,611e508f1ded92caed24fc5b,611e07ecdcc96256ae8d5b80,611e6bdd611589be4eeb9c15,
,,,,space,0.4323,,0,107,107,127,1,S, , , , ,space,2500,2.5,611e508f1ded92caed24fc5b,001,2021-08-19_15h34.27.839,natb3,2021.2.3,MacIntel,60.0024001,611e508f1ded92caed24fc5b,611e07ecdcc96256ae8d5b80,611e6bdd611589be4eeb9c15,
,,,,space,0.6159,,0,108,108,1,1,W, , , , ,space,2000,2,611e508f1ded92caed24fc5b,001,2021-08-19_15h34.27.839,natb3,2021.2.3,MacIntel,60.0024001,611e508f1ded92caed24fc5b,611e07ecdcc96256ae8d5b80,611e6bdd611589be4eeb9c15,
,,,,,,,0,109,109,7,1,X, , , , ,,1500,1.5,611e508f1ded92caed24fc5b,001,2021-08-19_15h34.27.839,natb3,2021.2.3,MacIntel,60.0024001,611e508f1ded92caed24fc5b,611e07ecdcc96256ae8d5b80,611e6bdd611589be4eeb9c15,
,,,,space,0.4661,,0,110,110,298,1,I, , , , ,space,2000,2,611e508f1ded92caed24fc5b,001,2021-08-19_15h34.27.839,natb3,2021.2.3,MacIntel,60.0024001,611e508f1ded92caed24fc5b,611e07ecdcc96256ae8d5b80,611e6bdd611589be4eeb9c15,
,,,,space,0.4665,,0,111,111,132,1,H, , , , ,space,2500,2.5,611e508f1ded92caed24fc5b,001,2021-08-19_15h34.27.839,natb3,2021.2.3,MacIntel,60.0024001,611e508f1ded92caed24fc5b,611e07ecdcc96256ae8d5b80,611e6bdd611589be4eeb9c15,
,,,,space,0.6085,,0,112,112,119,1,Y, , , , ,space,2500,2.5,611e508f1ded92caed24fc5b,001,2021-08-19_15h34.27.839,natb3,2021.2.3,MacIntel,60.0024001,611e508f1ded92caed24fc5b,611e07ecdcc96256ae8d5b80,611e6bdd611589be4eeb9c15,
,,,,,,,0,113,113,239,1,X, , , , ,,2000,2,611e508f1ded92caed24fc5b,001,2021-08-19_15h34.27.839,natb3,2021.2.3,MacIntel,60.0024001,611e508f1ded92caed24fc5b,611e07ecdcc96256ae8d5b80,611e6bdd611589be4eeb9c15,
,,,,space,0.6177,,0,114,114,62,1,V, , , , ,space,1500,1.5,611e508f1ded92caed24fc5b,001,2021-08-19_15h34.27.839,natb3,2021.2.3,MacIntel,60.0024001,611e508f1ded92caed24fc5b,611e07ecdcc96256ae8d5b80,611e6bdd611589be4eeb9c15,
,,,,space,0.4767,,0,115,115,88,1,J, , , , ,space,2500,2.5,611e508f1ded92caed24fc5b,001,2021-08-19_15h34.27.839,natb3,2021.2.3,MacIntel,60.0024001,611e508f1ded92caed24fc5b,611e07ecdcc96256ae8d5b80,611e6bdd611589be4eeb9c15,
,,,,space,0.5761,,0,116,116,181,1,E, , , , ,space,1500,1.5,611e508f1ded92caed24fc5b,001,2021-08-19_15h34.27.839,natb3,2021.2.3,MacIntel,60.0024001,611e508f1ded92caed24fc5b,611e07ecdcc96256ae8d5b80,611e6bdd611589be4eeb9c15,
,,,,space,0.4932,,0,117,117,152,1,U, , , , ,space,2000,2,611e508f1ded92caed24fc5b,001,2021-08-19_15h34.27.839,natb3,2021.2.3,MacIntel,60.0024001,611e508f1ded92caed24fc5b,611e07ecdcc96256ae8d5b80,611e6bdd611589be4eeb9c15,
,,,,space,0.4587,,0,118,118,164,1,H, , , , ,space,2500,2.5,611e508f1ded92caed24fc5b,001,2021-08-19_15h34.27.839,natb3,2021.2.3,MacIntel,60.0024001,611e508f1ded92caed24fc5b,611e07ecdcc96256ae8d5b80,611e6bdd611589be4eeb9c15,
,,,,space,0.4426,,0,119,119,286,1,N, , , , ,space,1500,1.5,611e508f1ded92caed24fc5b,001,2021-08-19_15h34.27.839,natb3,2021.2.3,MacIntel,60.0024001,611e508f1ded92caed24fc5b,611e07ecdcc96256ae8d5b80,611e6bdd611589be4eeb9c15,
,,,,space,0.4599,,0,120,120,272,1,D, , , , ,space,2000,2,611e508f1ded92caed24fc5b,001,2021-08-19_15h34.27.839,natb3,2021.2.3,MacIntel,60.0024001,611e508f1ded92caed24fc5b,611e07ecdcc96256ae8d5b80,611e6bdd611589be4eeb9c15,
,,,,space,0.4419,,0,121,121,100,1,M, , , , ,space,2000,2,611e508f1ded92caed24fc5b,001,2021-08-19_15h34.27.839,natb3,2021.2.3,MacIntel,60.0024001,611e508f1ded92caed24fc5b,611e07ecdcc96256ae8d5b80,611e6bdd611589be4eeb9c15,
,,,,,,,0,122,122,295,1,X,8,7,5, ,,2500,2.5,611e508f1ded92caed24fc5b,001,2021-08-19_15h34.27.839,natb3,2021.2.3,MacIntel,60.0024001,611e508f1ded92caed24fc5b,611e07ecdcc96256ae8d5b80,611e6bdd611589be4eeb9c15,
,,,,,,,0,123,123,141,1,X,1, ,4,6,,1500,1.5,611e508f1ded92caed24fc5b,001,2021-08-19_15h34.27.839,natb3,2021.2.3,MacIntel,60.0024001,611e508f1ded92caed24fc5b,611e07ecdcc96256ae8d5b80,611e6bdd611589be4eeb9c15,
,,,,space,0.4654,,0,124,124,174,1,B, , , , ,space,2500,2.5,611e508f1ded92caed24fc5b,001,2021-08-19_15h34.27.839,natb3,2021.2.3,MacIntel,60.0024001,611e508f1ded92caed24fc5b,611e07ecdcc96256ae8d5b80,611e6bdd611589be4eeb9c15,
,,,,space,0.4908,,0,125,125,334,1,O, , , , ,space,1500,1.5,611e508f1ded92caed24fc5b,001,2021-08-19_15h34.27.839,natb3,2021.2.3,MacIntel,60.0024001,611e508f1ded92caed24fc5b,611e07ecdcc96256ae8d5b80,611e6bdd611589be4eeb9c15,
,,,,space,0.4506,,0,126,126,290,1,W, , , , ,space,1500,1.5,611e508f1ded92caed24fc5b,001,2021-08-19_15h34.27.839,natb3,2021.2.3,MacIntel,60.0024001,611e508f1ded92caed24fc5b,611e07ecdcc96256ae8d5b80,611e6bdd611589be4eeb9c15,
,,,,space,0.4667,,0,127,127,331,1,Y, , , , ,space,2500,2.5,611e508f1ded92caed24fc5b,001,2021-08-19_15h34.27.839,natb3,2021.2.3,MacIntel,60.0024001,611e508f1ded92caed24fc5b,611e07ecdcc96256ae8d5b80,611e6bdd611589be4eeb9c15,
,,,,space,0.4931,,0,128,128,266,1,O, , , , ,space,1500,1.5,611e508f1ded92caed24fc5b,001,2021-08-19_15h34.27.839,natb3,2021.2.3,MacIntel,60.0024001,611e508f1ded92caed24fc5b,611e07ecdcc96256ae8d5b80,611e6bdd611589be4eeb9c15,
,,,,space,0.4271,,0,129,129,279,1,K, , , , ,space,2500,2.5,611e508f1ded92caed24fc5b,001,2021-08-19_15h34.27.839,natb3,2021.2.3,MacIntel,60.0024001,611e508f1ded92caed24fc5b,611e07ecdcc96256ae8d5b80,611e6bdd611589be4eeb9c15,
,,,,space,0.3926,,0,130,130,0,1,Q, , , , ,space,1500,1.5,611e508f1ded92caed24fc5b,001,2021-08-19_15h34.27.839,natb3,2021.2.3,MacIntel,60.0024001,611e508f1ded92caed24fc5b,611e07ecdcc96256ae8d5b80,611e6bdd611589be4eeb9c15,
,,,,,,,0,131,131,93,1,X,5, ,7, ,,2500,2.5,611e508f1ded92caed24fc5b,001,2021-08-19_15h34.27.839,natb3,2021.2.3,MacIntel,60.0024001,611e508f1ded92caed24fc5b,611e07ecdcc96256ae8d5b80,611e6bdd611589be4eeb9c15,
,,,,space,0.5269,,0,132,132,20,1,H, , , , ,space,1500,1.5,611e508f1ded92caed24fc5b,001,2021-08-19_15h34.27.839,natb3,2021.2.3,MacIntel,60.0024001,611e508f1ded92caed24fc5b,611e07ecdcc96256ae8d5b80,611e6bdd611589be4eeb9c15,
,,,,,,,0,133,133,252,1,X,3, ,6,9,,2000,2,611e508f1ded92caed24fc5b,001,2021-08-19_15h34.27.839,natb3,2021.2.3,MacIntel,60.0024001,611e508f1ded92caed24fc5b,611e07ecdcc96256ae8d5b80,611e6bdd611589be4eeb9c15,
,,,,,,,0,134,134,325,1,X, , , , ,,2500,2.5,611e508f1ded92caed24fc5b,001,2021-08-19_15h34.27.839,natb3,2021.2.3,MacIntel,60.0024001,611e508f1ded92caed24fc5b,611e07ecdcc96256ae8d5b80,611e6bdd611589be4eeb9c15,
,,,,space,0.4518,,0,135,135,276,1,H, , , , ,space,2000,2,611e508f1ded92caed24fc5b,001,2021-08-19_15h34.27.839,natb3,2021.2.3,MacIntel,60.0024001,611e508f1ded92caed24fc5b,611e07ecdcc96256ae8d5b80,611e6bdd611589be4eeb9c15,
,,,,,,,0,136,136,153,1,X,4,7, ,6,,2000,2,611e508f1ded92caed24fc5b,001,2021-08-19_15h34.27.839,natb3,2021.2.3,MacIntel,60.0024001,611e508f1ded92caed24fc5b,611e07ecdcc96256ae8d5b80,611e6bdd611589be4eeb9c15,
,,,,space,0.3984,,0,137,137,144,1,Q, , , , ,space,2500,2.5,611e508f1ded92caed24fc5b,001,2021-08-19_15h34.27.839,natb3,2021.2.3,MacIntel,60.0024001,611e508f1ded92caed24fc5b,611e07ecdcc96256ae8d5b80,611e6bdd611589be4eeb9c15,
,,,,space,0.4651,,0,138,138,67,1,Q, , , , ,space,2000,2,611e508f1ded92caed24fc5b,001,2021-08-19_15h34.27.839,natb3,2021.2.3,MacIntel,60.0024001,611e508f1ded92caed24fc5b,611e07ecdcc96256ae8d5b80,611e6bdd611589be4eeb9c15,
,,,,space,0.4335,,0,139,139,185,1,Y, , , , ,space,2500,2.5,611e508f1ded92caed24fc5b,001,2021-08-19_15h34.27.839,natb3,2021.2.3,MacIntel,60.0024001,611e508f1ded92caed24fc5b,611e07ecdcc96256ae8d5b80,611e6bdd611589be4eeb9c15,
,,,,space,0.465,,0,140,140,90,1,K, , , , ,space,2000,2,611e508f1ded92caed24fc5b,001,2021-08-19_15h34.27.839,natb3,2021.2.3,MacIntel,60.0024001,611e508f1ded92caed24fc5b,611e07ecdcc96256ae8d5b80,611e6bdd611589be4eeb9c15,
,,,,space,0.4353,,0,141,141,111,1,O, , , , ,space,2000,2,611e508f1ded92caed24fc5b,001,2021-08-19_15h34.27.839,natb3,2021.2.3,MacIntel,60.0024001,611e508f1ded92caed24fc5b,611e07ecdcc96256ae8d5b80,611e6bdd611589be4eeb9c15,
,,,,space,0.425,,0,142,142,103,1,W, , , , ,space,2000,2,611e508f1ded92caed24fc5b,001,2021-08-19_15h34.27.839,natb3,2021.2.3,MacIntel,60.0024001,611e508f1ded92caed24fc5b,611e07ecdcc96256ae8d5b80,611e6bdd611589be4eeb9c15,
,,,,space,0.4186,,0,143,143,64,1,N, , , , ,space,2000,2,611e508f1ded92caed24fc5b,001,2021-08-19_15h34.27.839,natb3,2021.2.3,MacIntel,60.0024001,611e508f1ded92caed24fc5b,611e07ecdcc96256ae8d5b80,611e6bdd611589be4eeb9c15,
,,,,,,,0,144,144,39,1,X,6,2, , ,,1500,1.5,611e508f1ded92caed24fc5b,001,2021-08-19_15h34.27.839,natb3,2021.2.3,MacIntel,60.0024001,611e508f1ded92caed24fc5b,611e07ecdcc96256ae8d5b80,611e6bdd611589be4eeb9c15,
,,,,space,0.4743,,0,145,145,63,1,B, , , , ,space,2000,2,611e508f1ded92caed24fc5b,001,2021-08-19_15h34.27.839,natb3,2021.2.3,MacIntel,60.0024001,611e508f1ded92caed24fc5b,611e07ecdcc96256ae8d5b80,611e6bdd611589be4eeb9c15,
,,,,,,,0,146,146,122,1,X,1, , ,8,,1500,1.5,611e508f1ded92caed24fc5b,001,2021-08-19_15h34.27.839,natb3,2021.2.3,MacIntel,60.0024001,611e508f1ded92caed24fc5b,611e07ecdcc96256ae8d5b80,611e6bdd611589be4eeb9c15,
,,,,space,0.4996,,0,147,147,294,1,T, , , , ,space,2000,2,611e508f1ded92caed24fc5b,001,2021-08-19_15h34.27.839,natb3,2021.2.3,MacIntel,60.0024001,611e508f1ded92caed24fc5b,611e07ecdcc96256ae8d5b80,611e6bdd611589be4eeb9c15,
,,,,space,0.4416,,0,148,148,104,1,E, , , , ,space,2000,2,611e508f1ded92caed24fc5b,001,2021-08-19_15h34.27.839,natb3,2021.2.3,MacIntel,60.0024001,611e508f1ded92caed24fc5b,611e07ecdcc96256ae8d5b80,611e6bdd611589be4eeb9c15,
,,,,space,0.3689,,0,149,149,219,1,Y, , , , ,space,2000,2,611e508f1ded92caed24fc5b,001,2021-08-19_15h34.27.839,natb3,2021.2.3,MacIntel,60.0024001,611e508f1ded92caed24fc5b,611e07ecdcc96256ae8d5b80,611e6bdd611589be4eeb9c15,
,,,,space,0.3816,,0,150,150,257,1,W, , , , ,space,2000,2,611e508f1ded92caed24fc5b,001,2021-08-19_15h34.27.839,natb3,2021.2.3,MacIntel,60.0024001,611e508f1ded92caed24fc5b,611e07ecdcc96256ae8d5b80,611e6bdd611589be4eeb9c15,
,,,,space,0.376,,0,151,151,319,1,V, , , , ,space,2000,2,611e508f1ded92caed24fc5b,001,2021-08-19_15h34.27.839,natb3,2021.2.3,MacIntel,60.0024001,611e508f1ded92caed24fc5b,611e07ecdcc96256ae8d5b80,611e6bdd611589be4eeb9c15,
,,,,space,0.2919,,0,152,152,312,1,K, , , , ,space,2000,2,611e508f1ded92caed24fc5b,001,2021-08-19_15h34.27.839,natb3,2021.2.3,MacIntel,60.0024001,611e508f1ded92caed24fc5b,611e07ecdcc96256ae8d5b80,611e6bdd611589be4eeb9c15,
,,,,space,0.4086,,0,153,153,288,1,M, , , , ,space,1500,1.5,611e508f1ded92caed24fc5b,001,2021-08-19_15h34.27.839,natb3,2021.2.3,MacIntel,60.0024001,611e508f1ded92caed24fc5b,611e07ecdcc96256ae8d5b80,611e6bdd611589be4eeb9c15,
,,,,space,0.3969,,0,154,154,314,1,L, , , , ,space,1500,1.5,611e508f1ded92caed24fc5b,001,2021-08-19_15h34.27.839,natb3,2021.2.3,MacIntel,60.0024001,611e508f1ded92caed24fc5b,611e07ecdcc96256ae8d5b80,611e6bdd611589be4eeb9c15,
,,,,space,0.3834,,0,155,155,147,1,E, , , , ,space,2000,2,611e508f1ded92caed24fc5b,001,2021-08-19_15h34.27.839,natb3,2021.2.3,MacIntel,60.0024001,611e508f1ded92caed24fc5b,611e07ecdcc96256ae8d5b80,611e6bdd611589be4eeb9c15,
,,,,space,0.3504,,0,156,156,192,1,A, , , , ,space,2000,2,611e508f1ded92caed24fc5b,001,2021-08-19_15h34.27.839,natb3,2021.2.3,MacIntel,60.0024001,611e508f1ded92caed24fc5b,611e07ecdcc96256ae8d5b80,611e6bdd611589be4eeb9c15,
,,,,space,0.3837,,0,157,157,65,1,M, , , , ,space,1500,1.5,611e508f1ded92caed24fc5b,001,2021-08-19_15h34.27.839,natb3,2021.2.3,MacIntel,60.0024001,611e508f1ded92caed24fc5b,611e07ecdcc96256ae8d5b80,611e6bdd611589be4eeb9c15,
,,,,space,0.3752,,0,158,158,182,1,X, , , , ,,1500,1.5,611e508f1ded92caed24fc5b,001,2021-08-19_15h34.27.839,natb3,2021.2.3,MacIntel,60.0024001,611e508f1ded92caed24fc5b,611e07ecdcc96256ae8d5b80,611e6bdd611589be4eeb9c15,
,,,,space,0.3263,,0,159,159,3,1,R, , , , ,space,2000,2,611e508f1ded92caed24fc5b,001,2021-08-19_15h34.27.839,natb3,2021.2.3,MacIntel,60.0024001,611e508f1ded92caed24fc5b,611e07ecdcc96256ae8d5b80,611e6bdd611589be4eeb9c15,
,,,,,,,0,160,160,202,1,L, , , , ,space,2500,2.5,611e508f1ded92caed24fc5b,001,2021-08-19_15h34.27.839,natb3,2021.2.3,MacIntel,60.0024001,611e508f1ded92caed24fc5b,611e07ecdcc96256ae8d5b80,611e6bdd611589be4eeb9c15,
,,,,,,,0,161,161,287,1,X, ,2, ,9,,2000,2,611e508f1ded92caed24fc5b,001,2021-08-19_15h34.27.839,natb3,2021.2.3,MacIntel,60.0024001,611e508f1ded92caed24fc5b,611e07ecdcc96256ae8d5b80,611e6bdd611589be4eeb9c15,
,,,,space,0.5581,,0,162,162,246,1,L, , , , ,space,2500,2.5,611e508f1ded92caed24fc5b,001,2021-08-19_15h34.27.839,natb3,2021.2.3,MacIntel,60.0024001,611e508f1ded92caed24fc5b,611e07ecdcc96256ae8d5b80,611e6bdd611589be4eeb9c15,
,,,,space,0.4466,,0,163,163,216,1,R, , , , ,space,1500,1.5,611e508f1ded92caed24fc5b,001,2021-08-19_15h34.27.839,natb3,2021.2.3,MacIntel,60.0024001,611e508f1ded92caed24fc5b,611e07ecdcc96256ae8d5b80,611e6bdd611589be4eeb9c15,
,,,,space,0.391,,0,164,164,73,1,Y, , , , ,space,2000,2,611e508f1ded92caed24fc5b,001,2021-08-19_15h34.27.839,natb3,2021.2.3,MacIntel,60.0024001,611e508f1ded92caed24fc5b,611e07ecdcc96256ae8d5b80,611e6bdd611589be4eeb9c15,
,,,,space,0.4038,,0,165,165,45,1,O, , , , ,space,2000,2,611e508f1ded92caed24fc5b,001,2021-08-19_15h34.27.839,natb3,2021.2.3,MacIntel,60.0024001,611e508f1ded92caed24fc5b,611e07ecdcc96256ae8d5b80,611e6bdd611589be4eeb9c15,
,,,,,,,0,166,166,46,1,X, , , , ,,2000,2,611e508f1ded92caed24fc5b,001,2021-08-19_15h34.27.839,natb3,2021.2.3,MacIntel,60.0024001,611e508f1ded92caed24fc5b,611e07ecdcc96256ae8d5b80,611e6bdd611589be4eeb9c15,
,,,,space,0.4579,space,0,167,167,330,1,T, , , , ,space,2500,2.5,611e508f1ded92caed24fc5b,001,2021-08-19_15h34.27.839,natb3,2021.2.3,MacIntel,60.0024001,611e508f1ded92caed24fc5b,611e07ecdcc96256ae8d5b80,611e6bdd611589be4eeb9c15,27.658
,,,,space,0.316,,0,168,168,262,1,Y, , , , ,space,2500,2.5,611e508f1ded92caed24fc5b,001,2021-08-19_15h34.27.839,natb3,2021.2.3,MacIntel,60.0024001,611e508f1ded92caed24fc5b,611e07ecdcc96256ae8d5b80,611e6bdd611589be4eeb9c15,
,,,,space,0.3415,,0,169,169,301,1,P, , , , ,space,1500,1.5,611e508f1ded92caed24fc5b,001,2021-08-19_15h34.27.839,natb3,2021.2.3,MacIntel,60.0024001,611e508f1ded92caed24fc5b,611e07ecdcc96256ae8d5b80,611e6bdd611589be4eeb9c15,
,,,,space,0.2834,,0,170,170,91,1,L, , , , ,space,2000,2,611e508f1ded92caed24fc5b,001,2021-08-19_15h34.27.839,natb3,2021.2.3,MacIntel,60.0024001,611e508f1ded92caed24fc5b,611e07ecdcc96256ae8d5b80,611e6bdd611589be4eeb9c15,
,,,,space,0.2986,,0,171,171,189,1,O, , , , ,space,1500,1.5,611e508f1ded92caed24fc5b,001,2021-08-19_15h34.27.839,natb3,2021.2.3,MacIntel,60.0024001,611e508f1ded92caed24fc5b,611e07ecdcc96256ae8d5b80,611e6bdd611589be4eeb9c15,
,,,,space,0.2824,,0,172,172,198,1,H, , , , ,space,2500,2.5,611e508f1ded92caed24fc5b,001,2021-08-19_15h34.27.839,natb3,2021.2.3,MacIntel,60.0024001,611e508f1ded92caed24fc5b,611e07ecdcc96256ae8d5b80,611e6bdd611589be4eeb9c15,
,,,,space,0.3179,,0,173,173,197,1,G, , , , ,space,2500,2.5,611e508f1ded92caed24fc5b,001,2021-08-19_15h34.27.839,natb3,2021.2.3,MacIntel,60.0024001,611e508f1ded92caed24fc5b,611e07ecdcc96256ae8d5b80,611e6bdd611589be4eeb9c15,
,,,,space,0.391,,0,174,174,161,1,F, , , , ,space,1500,1.5,611e508f1ded92caed24fc5b,001,2021-08-19_15h34.27.839,natb3,2021.2.3,MacIntel,60.0024001,611e508f1ded92caed24fc5b,611e07ecdcc96256ae8d5b80,611e6bdd611589be4eeb9c15,
,,,,space,0.2817,,0,175,175,188,1,I, , , , ,space,2500,2.5,611e508f1ded92caed24fc5b,001,2021-08-19_15h34.27.839,natb3,2021.2.3,MacIntel,60.0024001,611e508f1ded92caed24fc5b,611e07ecdcc96256ae8d5b80,611e6bdd611589be4eeb9c15,
,,,,space,0.3664,,0,176,176,80,1,A, , , , ,space,2000,2,611e508f1ded92caed24fc5b,001,2021-08-19_15h34.27.839,natb3,2021.2.3,MacIntel,60.0024001,611e508f1ded92caed24fc5b,611e07ecdcc96256ae8d5b80,611e6bdd611589be4eeb9c15,
,,,,,,,0,177,177,335,1,P,,,,,space,1500,1.5,611e508f1ded92caed24fc5b,001,2021-08-19_15h34.27.839,natb3,2021.2.3,MacIntel,60.0024001,611e508f1ded92caed24fc5b,611e07ecdcc96256ae8d5b80,611e6bdd611589be4eeb9c15,
,,,,space,0.4228,,0,178,178,72,1,T, , , , ,space,1500,1.5,611e508f1ded92caed24fc5b,001,2021-08-19_15h34.27.839,natb3,2021.2.3,MacIntel,60.0024001,611e508f1ded92caed24fc5b,611e07ecdcc96256ae8d5b80,611e6bdd611589be4eeb9c15,
,,,,space,0.3172,,0,179,179,24,1,L, , , , ,space,2500,2.5,611e508f1ded92caed24fc5b,001,2021-08-19_15h34.27.839,natb3,2021.2.3,MacIntel,60.0024001,611e508f1ded92caed24fc5b,611e07ecdcc96256ae8d5b80,611e6bdd611589be4eeb9c15,
,,,,space,0.3744,,0,180,180,263,1,X,4, ,6, ,,1500,1.5,611e508f1ded92caed24fc5b,001,2021-08-19_15h34.27.839,natb3,2021.2.3,MacIntel,60.0024001,611e508f1ded92caed24fc5b,611e07ecdcc96256ae8d5b80,611e6bdd611589be4eeb9c15,
,,,,space,0.3975,,0,181,181,261,1,T, , , , ,space,2000,2,611e508f1ded92caed24fc5b,001,2021-08-19_15h34.27.839,natb3,2021.2.3,MacIntel,60.0024001,611e508f1ded92caed24fc5b,611e07ecdcc96256ae8d5b80,611e6bdd611589be4eeb9c15,
,,,,,,,0,182,182,15,1,X, , , , ,,1500,1.5,611e508f1ded92caed24fc5b,001,2021-08-19_15h34.27.839,natb3,2021.2.3,MacIntel,60.0024001,611e508f1ded92caed24fc5b,611e07ecdcc96256ae8d5b80,611e6bdd611589be4eeb9c15,
,,,,space,0.3839,,0,183,183,17,1,F, , , , ,space,2500,2.5,611e508f1ded92caed24fc5b,001,2021-08-19_15h34.27.839,natb3,2021.2.3,MacIntel,60.0024001,611e508f1ded92caed24fc5b,611e07ecdcc96256ae8d5b80,611e6bdd611589be4eeb9c15,
,,,,space,0.3914,,0,184,184,143,1,M, , , , ,space,2500,2.5,611e508f1ded92caed24fc5b,001,2021-08-19_15h34.27.839,natb3,2021.2.3,MacIntel,60.0024001,611e508f1ded92caed24fc5b,611e07ecdcc96256ae8d5b80,611e6bdd611589be4eeb9c15,
,,,,space,0.4083,,0,185,185,242,1,H, , , , ,space,2500,2.5,611e508f1ded92caed24fc5b,001,2021-08-19_15h34.27.839,natb3,2021.2.3,MacIntel,60.0024001,611e508f1ded92caed24fc5b,611e07ecdcc96256ae8d5b80,611e6bdd611589be4eeb9c15,
,,,,space,0.4349,,0,186,186,251,1,B, , , , ,space,1500,1.5,611e508f1ded92caed24fc5b,001,2021-08-19_15h34.27.839,natb3,2021.2.3,MacIntel,60.0024001,611e508f1ded92caed24fc5b,611e07ecdcc96256ae8d5b80,611e6bdd611589be4eeb9c15,
,,,,space,0.3971,,0,187,187,230,1,U, , , , ,space,1500,1.5,611e508f1ded92caed24fc5b,001,2021-08-19_15h34.27.839,natb3,2021.2.3,MacIntel,60.0024001,611e508f1ded92caed24fc5b,611e07ecdcc96256ae8d5b80,611e6bdd611589be4eeb9c15,
,,,,space,0.4154,,0,188,188,253,1,N, , , , ,space,2500,2.5,611e508f1ded92caed24fc5b,001,2021-08-19_15h34.27.839,natb3,2021.2.3,MacIntel,60.0024001,611e508f1ded92caed24fc5b,611e07ecdcc96256ae8d5b80,611e6bdd611589be4eeb9c15,
,,,,space,0.3438,,0,189,189,44,1,I, , , , ,space,2500,2.5,611e508f1ded92caed24fc5b,001,2021-08-19_15h34.27.839,natb3,2021.2.3,MacIntel,60.0024001,611e508f1ded92caed24fc5b,611e07ecdcc96256ae8d5b80,611e6bdd611589be4eeb9c15,
,,,,,,,0,190,190,89,1,X,3, , , ,,2000,2,611e508f1ded92caed24fc5b,001,2021-08-19_15h34.27.839,natb3,2021.2.3,MacIntel,60.0024001,611e508f1ded92caed24fc5b,611e07ecdcc96256ae8d5b80,611e6bdd611589be4eeb9c15,
,,,,space,0.4916,,0,191,191,221,1,I, , , , ,space,2500,2.5,611e508f1ded92caed24fc5b,001,2021-08-19_15h34.27.839,natb3,2021.2.3,MacIntel,60.0024001,611e508f1ded92caed24fc5b,611e07ecdcc96256ae8d5b80,611e6bdd611589be4eeb9c15,
,,,,space,0.3948,,0,192,192,128,1,D, , , , ,space,2500,2.5,611e508f1ded92caed24fc5b,001,2021-08-19_15h34.27.839,natb3,2021.2.3,MacIntel,60.0024001,611e508f1ded92caed24fc5b,611e07ecdcc96256ae8d5b80,611e6bdd611589be4eeb9c15,
,,,,space,0.4601,,0,193,193,323,1,M, , , , ,space,2500,2.5,611e508f1ded92caed24fc5b,001,2021-08-19_15h34.27.839,natb3,2021.2.3,MacIntel,60.0024001,611e508f1ded92caed24fc5b,611e07ecdcc96256ae8d5b80,611e6bdd611589be4eeb9c15,
,,,,space,0.3599,,0,194,194,148,1,X, , , , ,,2000,2,611e508f1ded92caed24fc5b,001,2021-08-19_15h34.27.839,natb3,2021.2.3,MacIntel,60.0024001,611e508f1ded92caed24fc5b,611e07ecdcc96256ae8d5b80,611e6bdd611589be4eeb9c15,
,,,,space,0.4463,,0,195,195,176,1,N, , , , ,space,1500,1.5,611e508f1ded92caed24fc5b,001,2021-08-19_15h34.27.839,natb3,2021.2.3,MacIntel,60.0024001,611e508f1ded92caed24fc5b,611e07ecdcc96256ae8d5b80,611e6bdd611589be4eeb9c15,
,,,,space,0.3837,,0,196,196,193,1,S, , , , ,space,2500,2.5,611e508f1ded92caed24fc5b,001,2021-08-19_15h34.27.839,natb3,2021.2.3,MacIntel,60.0024001,611e508f1ded92caed24fc5b,611e07ecdcc96256ae8d5b80,611e6bdd611589be4eeb9c15,
,,,,space,0.3446,,0,197,197,26,1,C, , , , ,space,2000,2,611e508f1ded92caed24fc5b,001,2021-08-19_15h34.27.839,natb3,2021.2.3,MacIntel,60.0024001,611e508f1ded92caed24fc5b,611e07ecdcc96256ae8d5b80,611e6bdd611589be4eeb9c15,
,,,,space,0.3957,,0,198,198,289,1,Q, , , , ,space,2000,2,611e508f1ded92caed24fc5b,001,2021-08-19_15h34.27.839,natb3,2021.2.3,MacIntel,60.0024001,611e508f1ded92caed24fc5b,611e07ecdcc96256ae8d5b80,611e6bdd611589be4eeb9c15,
,,,,space,0.4001,,0,199,199,59,1,Z, , , , ,space,2000,2,611e508f1ded92caed24fc5b,001,2021-08-19_15h34.27.839,natb3,2021.2.3,MacIntel,60.0024001,611e508f1ded92caed24fc5b,611e07ecdcc96256ae8d5b80,611e6bdd611589be4eeb9c15,
,,,,space,0.3515,,0,200,200,95,1,V, , , , ,space,1500,1.5,611e508f1ded92caed24fc5b,001,2021-08-19_15h34.27.839,natb3,2021.2.3,MacIntel,60.0024001,611e508f1ded92caed24fc5b,611e07ecdcc96256ae8d5b80,611e6bdd611589be4eeb9c15,
,,,,space,0.3913,,0,201,201,210,1,M, , , , ,space,1500,1.5,611e508f1ded92caed24fc5b,001,2021-08-19_15h34.27.839,natb3,2021.2.3,MacIntel,60.0024001,611e508f1ded92caed24fc5b,611e07ecdcc96256ae8d5b80,611e6bdd611589be4eeb9c15,
,,,,space,0.3668,,0,202,202,86,1,G, , , , ,space,2000,2,611e508f1ded92caed24fc5b,001,2021-08-19_15h34.27.839,natb3,2021.2.3,MacIntel,60.0024001,611e508f1ded92caed24fc5b,611e07ecdcc96256ae8d5b80,611e6bdd611589be4eeb9c15,
,,,,space,0.3318,,0,203,203,13,1,A, , , , ,space,2000,2,611e508f1ded92caed24fc5b,001,2021-08-19_15h34.27.839,natb3,2021.2.3,MacIntel,60.0024001,611e508f1ded92caed24fc5b,611e07ecdcc96256ae8d5b80,611e6bdd611589be4eeb9c15,
,,,,space,0.2948,,0,204,204,163,1,G, , , , ,space,2500,2.5,611e508f1ded92caed24fc5b,001,2021-08-19_15h34.27.839,natb3,2021.2.3,MacIntel,60.0024001,611e508f1ded92caed24fc5b,611e07ecdcc96256ae8d5b80,611e6bdd611589be4eeb9c15,
,,,,space,0.3447,,0,205,205,227,1,T, , , , ,space,1500,1.5,611e508f1ded92caed24fc5b,001,2021-08-19_15h34.27.839,natb3,2021.2.3,MacIntel,60.0024001,611e508f1ded92caed24fc5b,611e07ecdcc96256ae8d5b80,611e6bdd611589be4eeb9c15,
,,,,space,0.3471,,0,206,206,32,1,M, , , , ,space,1500,1.5,611e508f1ded92caed24fc5b,001,2021-08-19_15h34.27.839,natb3,2021.2.3,MacIntel,60.0024001,611e508f1ded92caed24fc5b,611e07ecdcc96256ae8d5b80,611e6bdd611589be4eeb9c15,
,,,,space,0.367,,0,207,207,212,1,Q, , , , ,space,2500,2.5,611e508f1ded92caed24fc5b,001,2021-08-19_15h34.27.839,natb3,2021.2.3,MacIntel,60.0024001,611e508f1ded92caed24fc5b,611e07ecdcc96256ae8d5b80,611e6bdd611589be4eeb9c15,
,,,,space,0.3352,,0,208,208,225,1,E, , , , ,space,2000,2,611e508f1ded92caed24fc5b,001,2021-08-19_15h34.27.839,natb3,2021.2.3,MacIntel,60.0024001,611e508f1ded92caed24fc5b,611e07ecdcc96256ae8d5b80,611e6bdd611589be4eeb9c15,
,,,,space,0.342,,0,209,209,171,1,X, , , , ,,1500,1.5,611e508f1ded92caed24fc5b,001,2021-08-19_15h34.27.839,natb3,2021.2.3,MacIntel,60.0024001,611e508f1ded92caed24fc5b,611e07ecdcc96256ae8d5b80,611e6bdd611589be4eeb9c15,
,,,,,,,0,210,210,51,1,X,7,5,8, ,,1500,1.5,611e508f1ded92caed24fc5b,001,2021-08-19_15h34.27.839,natb3,2021.2.3,MacIntel,60.0024001,611e508f1ded92caed24fc5b,611e07ecdcc96256ae8d5b80,611e6bdd611589be4eeb9c15,
,,,,space,0.4327,,0,211,211,220,1,U, , , , ,space,2500,2.5,611e508f1ded92caed24fc5b,001,2021-08-19_15h34.27.839,natb3,2021.2.3,MacIntel,60.0024001,611e508f1ded92caed24fc5b,611e07ecdcc96256ae8d5b80,611e6bdd611589be4eeb9c15,
,,,,space,0.5429,,0,212,212,269,1,A, , , , ,space,2500,2.5,611e508f1ded92caed24fc5b,001,2021-08-19_15h34.27.839,natb3,2021.2.3,MacIntel,60.0024001,611e508f1ded92caed24fc5b,611e07ecdcc96256ae8d5b80,611e6bdd611589be4eeb9c15,
,,,,,,,0,213,213,268,1,X,6, ,3, ,,2500,2.5,611e508f1ded92caed24fc5b,001,2021-08-19_15h34.27.839,natb3,2021.2.3,MacIntel,60.0024001,611e508f1ded92caed24fc5b,611e07ecdcc96256ae8d5b80,611e6bdd611589be4eeb9c15,
,,,,space,0.5736,,0,214,214,146,1,W, , , , ,space,1500,1.5,611e508f1ded92caed24fc5b,001,2021-08-19_15h34.27.839,natb3,2021.2.3,MacIntel,60.0024001,611e508f1ded92caed24fc5b,611e07ecdcc96256ae8d5b80,611e6bdd611589be4eeb9c15,
,,,,space,0.5951,,0,215,215,131,1,G, , , , ,space,1500,1.5,611e508f1ded92caed24fc5b,001,2021-08-19_15h34.27.839,natb3,2021.2.3,MacIntel,60.0024001,611e508f1ded92caed24fc5b,611e07ecdcc96256ae8d5b80,611e6bdd611589be4eeb9c15,
,,,,space,0.4342,,0,216,216,316,1,Z, , , , ,space,1500,1.5,611e508f1ded92caed24fc5b,001,2021-08-19_15h34.27.839,natb3,2021.2.3,MacIntel,60.0024001,611e508f1ded92caed24fc5b,611e07ecdcc96256ae8d5b80,611e6bdd611589be4eeb9c15,
,,,,space,0.3835,,0,217,217,244,1,J, , , , ,space,1500,1.5,611e508f1ded92caed24fc5b,001,2021-08-19_15h34.27.839,natb3,2021.2.3,MacIntel,60.0024001,611e508f1ded92caed24fc5b,611e07ecdcc96256ae8d5b80,611e6bdd611589be4eeb9c15,
,,,,space,0.3503,,0,218,218,151,1,Y, , , , ,space,2500,2.5,611e508f1ded92caed24fc5b,001,2021-08-19_15h34.27.839,natb3,2021.2.3,MacIntel,60.0024001,611e508f1ded92caed24fc5b,611e07ecdcc96256ae8d5b80,611e6bdd611589be4eeb9c15,
,,,,,,,0,219,219,133,1,X, ,4, ,6,,2500,2.5,611e508f1ded92caed24fc5b,001,2021-08-19_15h34.27.839,natb3,2021.2.3,MacIntel,60.0024001,611e508f1ded92caed24fc5b,611e07ecdcc96256ae8d5b80,611e6bdd611589be4eeb9c15,
,,,,,,,0,220,220,291,1,X, , , , ,,2000,2,611e508f1ded92caed24fc5b,001,2021-08-19_15h34.27.839,natb3,2021.2.3,MacIntel,60.0024001,611e508f1ded92caed24fc5b,611e07ecdcc96256ae8d5b80,611e6bdd611589be4eeb9c15,
,,,,space,0.4292,,0,221,221,199,1,J, , , , ,space,2500,2.5,611e508f1ded92caed24fc5b,001,2021-08-19_15h34.27.839,natb3,2021.2.3,MacIntel,60.0024001,611e508f1ded92caed24fc5b,611e07ecdcc96256ae8d5b80,611e6bdd611589be4eeb9c15,
,,,,space,0.3432,,0,222,222,38,1,R, , , , ,space,2500,2.5,611e508f1ded92caed24fc5b,001,2021-08-19_15h34.27.839,natb3,2021.2.3,MacIntel,60.0024001,611e508f1ded92caed24fc5b,611e07ecdcc96256ae8d5b80,611e6bdd611589be4eeb9c15,
,,,,space,0.377,,0,223,223,145,1,X, , , , ,,2000,2,611e508f1ded92caed24fc5b,001,2021-08-19_15h34.27.839,natb3,2021.2.3,MacIntel,60.0024001,611e508f1ded92caed24fc5b,611e07ecdcc96256ae8d5b80,611e6bdd611589be4eeb9c15,
,,,,space,0.4089,,0,224,224,204,1,Z, , , , ,space,2000,2,611e508f1ded92caed24fc5b,001,2021-08-19_15h34.27.839,natb3,2021.2.3,MacIntel,60.0024001,611e508f1ded92caed24fc5b,611e07ecdcc96256ae8d5b80,611e6bdd611589be4eeb9c15,
,,,,space,0.3754,,0,225,225,126,1,A, , , , ,space,2500,2.5,611e508f1ded92caed24fc5b,001,2021-08-19_15h34.27.839,natb3,2021.2.3,MacIntel,60.0024001,611e508f1ded92caed24fc5b,611e07ecdcc96256ae8d5b80,611e6bdd611589be4eeb9c15,
,,,,space,0.3188,,0,226,226,315,1,X, , , , ,,2500,2.5,611e508f1ded92caed24fc5b,001,2021-08-19_15h34.27.839,natb3,2021.2.3,MacIntel,60.0024001,611e508f1ded92caed24fc5b,611e07ecdcc96256ae8d5b80,611e6bdd611589be4eeb9c15,
,,,,,,,0,227,227,195,1,X, , , , ,,1500,1.5,611e508f1ded92caed24fc5b,001,2021-08-19_15h34.27.839,natb3,2021.2.3,MacIntel,60.0024001,611e508f1ded92caed24fc5b,611e07ecdcc96256ae8d5b80,611e6bdd611589be4eeb9c15,
,,,,space,0.6079,,0,228,228,270,1,S, , , , ,space,1500,1.5,611e508f1ded92caed24fc5b,001,2021-08-19_15h34.27.839,natb3,2021.2.3,MacIntel,60.0024001,611e508f1ded92caed24fc5b,611e07ecdcc96256ae8d5b80,611e6bdd611589be4eeb9c15,
,,,,space,0.492,,0,229,229,94,1,C, , , , ,space,2000,2,611e508f1ded92caed24fc5b,001,2021-08-19_15h34.27.839,natb3,2021.2.3,MacIntel,60.0024001,611e508f1ded92caed24fc5b,611e07ecdcc96256ae8d5b80,611e6bdd611589be4eeb9c15,
,,,,space,0.4098,,0,230,230,101,1,Q, , , , ,space,2500,2.5,611e508f1ded92caed24fc5b,001,2021-08-19_15h34.27.839,natb3,2021.2.3,MacIntel,60.0024001,611e508f1ded92caed24fc5b,611e07ecdcc96256ae8d5b80,611e6bdd611589be4eeb9c15,
,,,,space,0.3831,,0,231,231,326,1,W, , , , ,space,2000,2,611e508f1ded92caed24fc5b,001,2021-08-19_15h34.27.839,natb3,2021.2.3,MacIntel,60.0024001,611e508f1ded92caed24fc5b,611e07ecdcc96256ae8d5b80,611e6bdd611589be4eeb9c15,
,,,,,,,0,232,232,207,1,X,9, ,2, ,,2500,2.5,611e508f1ded92caed24fc5b,001,2021-08-19_15h34.27.839,natb3,2021.2.3,MacIntel,60.0024001,611e508f1ded92caed24fc5b,611e07ecdcc96256ae8d5b80,611e6bdd611589be4eeb9c15,
,,,,,,,0,233,233,129,1,X,2,3,5, ,,1500,1.5,611e508f1ded92caed24fc5b,001,2021-08-19_15h34.27.839,natb3,2021.2.3,MacIntel,60.0024001,611e508f1ded92caed24fc5b,611e07ecdcc96256ae8d5b80,611e6bdd611589be4eeb9c15,
,,,,space,0.4925,,0,234,234,9,1,I, , , , ,space,1500,1.5,611e508f1ded92caed24fc5b,001,2021-08-19_15h34.27.839,natb3,2021.2.3,MacIntel,60.0024001,611e508f1ded92caed24fc5b,611e07ecdcc96256ae8d5b80,611e6bdd611589be4eeb9c15,
,,,,space,0.4255,,0,235,235,309,1,H, , , , ,space,2500,2.5,611e508f1ded92caed24fc5b,001,2021-08-19_15h34.27.839,natb3,2021.2.3,MacIntel,60.0024001,611e508f1ded92caed24fc5b,611e07ecdcc96256ae8d5b80,611e6bdd611589be4eeb9c15,
,,,,,,,0,236,236,11,1,P, , , , ,space,2500,2.5,611e508f1ded92caed24fc5b,001,2021-08-19_15h34.27.839,natb3,2021.2.3,MacIntel,60.0024001,611e508f1ded92caed24fc5b,611e07ecdcc96256ae8d5b80,611e6bdd611589be4eeb9c15,
,,,,space,0.4131,,0,237,237,247,1,Z, , , , ,space,1500,1.5,611e508f1ded92caed24fc5b,001,2021-08-19_15h34.27.839,natb3,2021.2.3,MacIntel,60.0024001,611e508f1ded92caed24fc5b,611e07ecdcc96256ae8d5b80,611e6bdd611589be4eeb9c15,
,,,,,,,0,238,238,305,1,X, , , , ,,1500,1.5,611e508f1ded92caed24fc5b,001,2021-08-19_15h34.27.839,natb3,2021.2.3,MacIntel,60.0024001,611e508f1ded92caed24fc5b,611e07ecdcc96256ae8d5b80,611e6bdd611589be4eeb9c15,
,,,,space,0.533,,0,239,239,234,1,P, , , , ,space,2000,2,611e508f1ded92caed24fc5b,001,2021-08-19_15h34.27.839,natb3,2021.2.3,MacIntel,60.0024001,611e508f1ded92caed24fc5b,611e07ecdcc96256ae8d5b80,611e6bdd611589be4eeb9c15,
,,,,space,0.3751,,0,240,240,169,1,L, , , , ,space,2500,2.5,611e508f1ded92caed24fc5b,001,2021-08-19_15h34.27.839,natb3,2021.2.3,MacIntel,60.0024001,611e508f1ded92caed24fc5b,611e07ecdcc96256ae8d5b80,611e6bdd611589be4eeb9c15,
,,,,,,,0,241,241,12,1,X, , , , ,,1500,1.5,611e508f1ded92caed24fc5b,001,2021-08-19_15h34.27.839,natb3,2021.2.3,MacIntel,60.0024001,611e508f1ded92caed24fc5b,611e07ecdcc96256ae8d5b80,611e6bdd611589be4eeb9c15,
,,,,,,,0,242,242,329,1,X,3,4, ,2,,2500,2.5,611e508f1ded92caed24fc5b,001,2021-08-19_15h34.27.839,natb3,2021.2.3,MacIntel,60.0024001,611e508f1ded92caed24fc5b,611e07ecdcc96256ae8d5b80,611e6bdd611589be4eeb9c15,
,,,,space,0.4776,,0,243,243,296,1,Y, , , , ,space,2500,2.5,611e508f1ded92caed24fc5b,001,2021-08-19_15h34.27.839,natb3,2021.2.3,MacIntel,60.0024001,611e508f1ded92caed24fc5b,611e07ecdcc96256ae8d5b80,611e6bdd611589be4eeb9c15,
,,,,space,0.3828,,0,244,244,228,1,Y, , , , ,space,2000,2,611e508f1ded92caed24fc5b,001,2021-08-19_15h34.27.839,natb3,2021.2.3,MacIntel,60.0024001,611e508f1ded92caed24fc5b,611e07ecdcc96256ae8d5b80,611e6bdd611589be4eeb9c15,
,,,,space,0.5096,,0,245,245,123,1,O, , , , ,space,1500,1.5,611e508f1ded92caed24fc5b,001,2021-08-19_15h34.27.839,natb3,2021.2.3,MacIntel,60.0024001,611e508f1ded92caed24fc5b,611e07ecdcc96256ae8d5b80,611e6bdd611589be4eeb9c15,
,,,,space,0.4136,,0,246,246,99,1,N, , , , ,space,2500,2.5,611e508f1ded92caed24fc5b,001,2021-08-19_15h34.27.839,natb3,2021.2.3,MacIntel,60.0024001,611e508f1ded92caed24fc5b,611e07ecdcc96256ae8d5b80,611e6bdd611589be4eeb9c15,
,,,,space,0.4336,,0,247,247,224,1,W, , , , ,space,1500,1.5,611e508f1ded92caed24fc5b,001,2021-08-19_15h34.27.839,natb3,2021.2.3,MacIntel,60.0024001,611e508f1ded92caed24fc5b,611e07ecdcc96256ae8d5b80,611e6bdd611589be4eeb9c15,
,,,,space,0.3852,,0,248,248,240,1,F, , , , ,space,2500,2.5,611e508f1ded92caed24fc5b,001,2021-08-19_15h34.27.839,natb3,2021.2.3,MacIntel,60.0024001,611e508f1ded92caed24fc5b,611e07ecdcc96256ae8d5b80,611e6bdd611589be4eeb9c15,
,,,,space,0.4475,,0,249,249,160,1,D, , , , ,space,1500,1.5,611e508f1ded92caed24fc5b,001,2021-08-19_15h34.27.839,natb3,2021.2.3,MacIntel,60.0024001,611e508f1ded92caed24fc5b,611e07ecdcc96256ae8d5b80,611e6bdd611589be4eeb9c15,
,,,,space,0.3321,,0,250,250,180,1,W, , , , ,space,2000,2,611e508f1ded92caed24fc5b,001,2021-08-19_15h34.27.839,natb3,2021.2.3,MacIntel,60.0024001,611e508f1ded92caed24fc5b,611e07ecdcc96256ae8d5b80,611e6bdd611589be4eeb9c15,
,,,,,,,0,251,251,66,1,X, ,4,7, ,,2000,2,611e508f1ded92caed24fc5b,001,2021-08-19_15h34.27.839,natb3,2021.2.3,MacIntel,60.0024001,611e508f1ded92caed24fc5b,611e07ecdcc96256ae8d5b80,611e6bdd611589be4eeb9c15,
,,,,,,,0,252,252,187,1,X, ,3,7,4,,1500,1.5,611e508f1ded92caed24fc5b,001,2021-08-19_15h34.27.839,natb3,2021.2.3,MacIntel,60.0024001,611e508f1ded92caed24fc5b,611e07ecdcc96256ae8d5b80,611e6bdd611589be4eeb9c15,
,,,,,,,0,253,253,102,1,X, ,6, , ,,1500,1.5,611e508f1ded92caed24fc5b,001,2021-08-19_15h34.27.839,natb3,2021.2.3,MacIntel,60.0024001,611e508f1ded92caed24fc5b,611e07ecdcc96256ae8d5b80,611e6bdd611589be4eeb9c15,
,,,,space,0.4237,,0,254,254,71,1,R, , , , ,space,2500,2.5,611e508f1ded92caed24fc5b,001,2021-08-19_15h34.27.839,natb3,2021.2.3,MacIntel,60.0024001,611e508f1ded92caed24fc5b,611e07ecdcc96256ae8d5b80,611e6bdd611589be4eeb9c15,
,,,,space,0.3914,,0,255,255,313,1,X, , , , ,,2500,2.5,611e508f1ded92caed24fc5b,001,2021-08-19_15h34.27.839,natb3,2021.2.3,MacIntel,60.0024001,611e508f1ded92caed24fc5b,611e07ecdcc96256ae8d5b80,611e6bdd611589be4eeb9c15,
,,,,,,,0,256,256,211,1,X, , , , ,,2500,2.5,611e508f1ded92caed24fc5b,001,2021-08-19_15h34.27.839,natb3,2021.2.3,MacIntel,60.0024001,611e508f1ded92caed24fc5b,611e07ecdcc96256ae8d5b80,611e6bdd611589be4eeb9c15,
,,,,space,0.4503,,0,257,257,149,1,R, , , , ,space,2000,2,611e508f1ded92caed24fc5b,001,2021-08-19_15h34.27.839,natb3,2021.2.3,MacIntel,60.0024001,611e508f1ded92caed24fc5b,611e07ecdcc96256ae8d5b80,611e6bdd611589be4eeb9c15,
,,,,space,0.4426,,0,258,258,105,1,R, , , , ,space,2500,2.5,611e508f1ded92caed24fc5b,001,2021-08-19_15h34.27.839,natb3,2021.2.3,MacIntel,60.0024001,611e508f1ded92caed24fc5b,611e07ecdcc96256ae8d5b80,611e6bdd611589be4eeb9c15,
,,,,space,0.4164,,0,259,259,222,1,O, , , , ,space,2000,2,611e508f1ded92caed24fc5b,001,2021-08-19_15h34.27.839,natb3,2021.2.3,MacIntel,60.0024001,611e508f1ded92caed24fc5b,611e07ecdcc96256ae8d5b80,611e6bdd611589be4eeb9c15,
,,,,space,0.4079,,0,260,260,306,1,D, , , , ,space,2000,2,611e508f1ded92caed24fc5b,001,2021-08-19_15h34.27.839,natb3,2021.2.3,MacIntel,60.0024001,611e508f1ded92caed24fc5b,611e07ecdcc96256ae8d5b80,611e6bdd611589be4eeb9c15,
,,,,,,,0,261,261,98,1,X, , , , ,,2500,2.5,611e508f1ded92caed24fc5b,001,2021-08-19_15h34.27.839,natb3,2021.2.3,MacIntel,60.0024001,611e508f1ded92caed24fc5b,611e07ecdcc96256ae8d5b80,611e6bdd611589be4eeb9c15,
,,,,space,0.5147,,0,262,262,48,1,A, , , , ,space,2500,2.5,611e508f1ded92caed24fc5b,001,2021-08-19_15h34.27.839,natb3,2021.2.3,MacIntel,60.0024001,611e508f1ded92caed24fc5b,611e07ecdcc96256ae8d5b80,611e6bdd611589be4eeb9c15,
,,,,space,0.4922,,0,263,263,304,1,S, , , , ,space,2000,2,611e508f1ded92caed24fc5b,001,2021-08-19_15h34.27.839,natb3,2021.2.3,MacIntel,60.0024001,611e508f1ded92caed24fc5b,611e07ecdcc96256ae8d5b80,611e6bdd611589be4eeb9c15,
,,,,,,,0,264,264,74,1,X, ,4,3,2,,1500,1.5,611e508f1ded92caed24fc5b,001,2021-08-19_15h34.27.839,natb3,2021.2.3,MacIntel,60.0024001,611e508f1ded92caed24fc5b,611e07ecdcc96256ae8d5b80,611e6bdd611589be4eeb9c15,
,,,,space,0.4774,,0,265,265,332,1,U, , , , ,space,2000,2,611e508f1ded92caed24fc5b,001,2021-08-19_15h34.27.839,natb3,2021.2.3,MacIntel,60.0024001,611e508f1ded92caed24fc5b,611e07ecdcc96256ae8d5b80,611e6bdd611589be4eeb9c15,
,,,,space,0.5292,,0,266,266,201,1,K, , , , ,space,1500,1.5,611e508f1ded92caed24fc5b,001,2021-08-19_15h34.27.839,natb3,2021.2.3,MacIntel,60.0024001,611e508f1ded92caed24fc5b,611e07ecdcc96256ae8d5b80,611e6bdd611589be4eeb9c15,
,,,,space,0.3761,,0,267,267,55,1,H, , , , ,space,2500,2.5,611e508f1ded92caed24fc5b,001,2021-08-19_15h34.27.839,natb3,2021.2.3,MacIntel,60.0024001,611e508f1ded92caed24fc5b,611e07ecdcc96256ae8d5b80,611e6bdd611589be4eeb9c15,
,,,,space,0.3419,,0,268,268,158,1,X, , , , ,,1500,1.5,611e508f1ded92caed24fc5b,001,2021-08-19_15h34.27.839,natb3,2021.2.3,MacIntel,60.0024001,611e508f1ded92caed24fc5b,611e07ecdcc96256ae8d5b80,611e6bdd611589be4eeb9c15,
,,,,space,0.5241,,0,269,269,274,1,F, , , , ,space,2000,2,611e508f1ded92caed24fc5b,001,2021-08-19_15h34.27.839,natb3,2021.2.3,MacIntel,60.0024001,611e508f1ded92caed24fc5b,611e07ecdcc96256ae8d5b80,611e6bdd611589be4eeb9c15,
,,,,space,0.5679,,0,270,270,70,1,E, , , , ,space,2500,2.5,611e508f1ded92caed24fc5b,001,2021-08-19_15h34.27.839,natb3,2021.2.3,MacIntel,60.0024001,611e508f1ded92caed24fc5b,611e07ecdcc96256ae8d5b80,611e6bdd611589be4eeb9c15,
,,,,space,0.4308,,0,271,271,19,1,G, , , , ,space,1500,1.5,611e508f1ded92caed24fc5b,001,2021-08-19_15h34.27.839,natb3,2021.2.3,MacIntel,60.0024001,611e508f1ded92caed24fc5b,611e07ecdcc96256ae8d5b80,611e6bdd611589be4eeb9c15,
,,,,,,,0,272,272,233,1,X, ,2, ,5,,1500,1.5,611e508f1ded92caed24fc5b,001,2021-08-19_15h34.27.839,natb3,2021.2.3,MacIntel,60.0024001,611e508f1ded92caed24fc5b,611e07ecdcc96256ae8d5b80,611e6bdd611589be4eeb9c15,
,,,,space,0.4578,,0,273,273,184,1,T, , , , ,space,2000,2,611e508f1ded92caed24fc5b,001,2021-08-19_15h34.27.839,natb3,2021.2.3,MacIntel,60.0024001,611e508f1ded92caed24fc5b,611e07ecdcc96256ae8d5b80,611e6bdd611589be4eeb9c15,
,,,,space,0.4259,,0,274,274,10,1,O, , , , ,space,2000,2,611e508f1ded92caed24fc5b,001,2021-08-19_15h34.27.839,natb3,2021.2.3,MacIntel,60.0024001,611e508f1ded92caed24fc5b,611e07ecdcc96256ae8d5b80,611e6bdd611589be4eeb9c15,
,,,,space,0.4408,,0,275,275,172,1,C, , , , ,space,1500,1.5,611e508f1ded92caed24fc5b,001,2021-08-19_15h34.27.839,natb3,2021.2.3,MacIntel,60.0024001,611e508f1ded92caed24fc5b,611e07ecdcc96256ae8d5b80,611e6bdd611589be4eeb9c15,
,,,,space,0.3993,,0,276,276,139,1,V, , , , ,space,2000,2,611e508f1ded92caed24fc5b,001,2021-08-19_15h34.27.839,natb3,2021.2.3,MacIntel,60.0024001,611e508f1ded92caed24fc5b,611e07ecdcc96256ae8d5b80,611e6bdd611589be4eeb9c15,
,,,,space,0.3508,,0,277,277,124,1,P, , , , ,space,2000,2,611e508f1ded92caed24fc5b,001,2021-08-19_15h34.27.839,natb3,2021.2.3,MacIntel,60.0024001,611e508f1ded92caed24fc5b,611e07ecdcc96256ae8d5b80,611e6bdd611589be4eeb9c15,
,,,,,,,0,278,278,33,1,X, , , , ,,1500,1.5,611e508f1ded92caed24fc5b,001,2021-08-19_15h34.27.839,natb3,2021.2.3,MacIntel,60.0024001,611e508f1ded92caed24fc5b,611e07ecdcc96256ae8d5b80,611e6bdd611589be4eeb9c15,
,,,,space,0.5266,,0,279,279,57,1,K, , , , ,space,2500,2.5,611e508f1ded92caed24fc5b,001,2021-08-19_15h34.27.839,natb3,2021.2.3,MacIntel,60.0024001,611e508f1ded92caed24fc5b,611e07ecdcc96256ae8d5b80,611e6bdd611589be4eeb9c15,
,,,,space,0.401,,0,280,280,130,1,F, , , , ,space,2000,2,611e508f1ded92caed24fc5b,001,2021-08-19_15h34.27.839,natb3,2021.2.3,MacIntel,60.0024001,611e508f1ded92caed24fc5b,611e07ecdcc96256ae8d5b80,611e6bdd611589be4eeb9c15,
,,,,,,,0,281,281,78,1,X, , , , ,,2000,2,611e508f1ded92caed24fc5b,001,2021-08-19_15h34.27.839,natb3,2021.2.3,MacIntel,60.0024001,611e508f1ded92caed24fc5b,611e07ecdcc96256ae8d5b80,611e6bdd611589be4eeb9c15,
,,,,space,0.342,,0,282,282,209,1,N, , , , ,space,2000,2,611e508f1ded92caed24fc5b,001,2021-08-19_15h34.27.839,natb3,2021.2.3,MacIntel,60.0024001,611e508f1ded92caed24fc5b,611e07ecdcc96256ae8d5b80,611e6bdd611589be4eeb9c15,
,,,,space,0.4086,,0,283,283,135,1,K, , , , ,space,1500,1.5,611e508f1ded92caed24fc5b,001,2021-08-19_15h34.27.839,natb3,2021.2.3,MacIntel,60.0024001,611e508f1ded92caed24fc5b,611e07ecdcc96256ae8d5b80,611e6bdd611589be4eeb9c15,
,,,,space,0.4591,,0,284,284,150,1,T, , , , ,space,2500,2.5,611e508f1ded92caed24fc5b,001,2021-08-19_15h34.27.839,natb3,2021.2.3,MacIntel,60.0024001,611e508f1ded92caed24fc5b,611e07ecdcc96256ae8d5b80,611e6bdd611589be4eeb9c15,
,,,,space,0.4173,,0,285,285,142,1,N, , , , ,space,2500,2.5,611e508f1ded92caed24fc5b,001,2021-08-19_15h34.27.839,natb3,2021.2.3,MacIntel,60.0024001,611e508f1ded92caed24fc5b,611e07ecdcc96256ae8d5b80,611e6bdd611589be4eeb9c15,
,,,,,,,0,286,286,236,1,X,3, ,4,7,,2500,2.5,611e508f1ded92caed24fc5b,001,2021-08-19_15h34.27.839,natb3,2021.2.3,MacIntel,60.0024001,611e508f1ded92caed24fc5b,611e07ecdcc96256ae8d5b80,611e6bdd611589be4eeb9c15,
,,,,space,0.3732,,0,287,287,114,1,E, , , , ,space,2000,2,611e508f1ded92caed24fc5b,001,2021-08-19_15h34.27.839,natb3,2021.2.3,MacIntel,60.0024001,611e508f1ded92caed24fc5b,611e07ecdcc96256ae8d5b80,611e6bdd611589be4eeb9c15,
,,,,,,,0,288,288,299,1,X, , , , ,,2500,2.5,611e508f1ded92caed24fc5b,001,2021-08-19_15h34.27.839,natb3,2021.2.3,MacIntel,60.0024001,611e508f1ded92caed24fc5b,611e07ecdcc96256ae8d5b80,611e6bdd611589be4eeb9c15,
,,,,space,0.3917,,0,289,289,245,1,K, , , , ,space,2000,2,611e508f1ded92caed24fc5b,001,2021-08-19_15h34.27.839,natb3,2021.2.3,MacIntel,60.0024001,611e508f1ded92caed24fc5b,611e07ecdcc96256ae8d5b80,611e6bdd611589be4eeb9c15,
,,,,,,,0,290,290,322,1,X, , ,1,6,,2000,2,611e508f1ded92caed24fc5b,001,2021-08-19_15h34.27.839,natb3,2021.2.3,MacIntel,60.0024001,611e508f1ded92caed24fc5b,611e07ecdcc96256ae8d5b80,611e6bdd611589be4eeb9c15,
,,,,space,0.4139,,0,291,291,196,1,F, , , , ,space,1500,1.5,611e508f1ded92caed24fc5b,001,2021-08-19_15h34.27.839,natb3,2021.2.3,MacIntel,60.0024001,611e508f1ded92caed24fc5b,611e07ecdcc96256ae8d5b80,611e6bdd611589be4eeb9c15,
,,,,,,,0,292,292,23,1,X,1, ,5, ,,2000,2,611e508f1ded92caed24fc5b,001,2021-08-19_15h34.27.839,natb3,2021.2.3,MacIntel,60.0024001,611e508f1ded92caed24fc5b,611e07ecdcc96256ae8d5b80,611e6bdd611589be4eeb9c15,
,,,,,,,0,293,293,138,1,X,8,5, ,3,,2000,2,611e508f1ded92caed24fc5b,001,2021-08-19_15h34.27.839,natb3,2021.2.3,MacIntel,60.0024001,611e508f1ded92caed24fc5b,611e07ecdcc96256ae8d5b80,611e6bdd611589be4eeb9c15,
,,,,,,,0,294,294,318,1,X, , , , ,,1500,1.5,611e508f1ded92caed24fc5b,001,2021-08-19_15h34.27.839,natb3,2021.2.3,MacIntel,60.0024001,611e508f1ded92caed24fc5b,611e07ecdcc96256ae8d5b80,611e6bdd611589be4eeb9c15,
,,,,space,0.3832,,0,295,295,264,1,U, , , , ,space,2000,2,611e508f1ded92caed24fc5b,001,2021-08-19_15h34.27.839,natb3,2021.2.3,MacIntel,60.0024001,611e508f1ded92caed24fc5b,611e07ecdcc96256ae8d5b80,611e6bdd611589be4eeb9c15,
,,,,space,0.4331,,0,296,296,194,1,D, , , , ,space,2000,2,611e508f1ded92caed24fc5b,001,2021-08-19_15h34.27.839,natb3,2021.2.3,MacIntel,60.0024001,611e508f1ded92caed24fc5b,611e07ecdcc96256ae8d5b80,611e6bdd611589be4eeb9c15,
,,,,space,0.3634,,0,297,297,280,1,L, , , , ,space,1500,1.5,611e508f1ded92caed24fc5b,001,2021-08-19_15h34.27.839,natb3,2021.2.3,MacIntel,60.0024001,611e508f1ded92caed24fc5b,611e07ecdcc96256ae8d5b80,611e6bdd611589be4eeb9c15,
,,,,space,0.3237,,0,298,298,297,1,U, , , , ,space,2000,2,611e508f1ded92caed24fc5b,001,2021-08-19_15h34.27.839,natb3,2021.2.3,MacIntel,60.0024001,611e508f1ded92caed24fc5b,611e07ecdcc96256ae8d5b80,611e6bdd611589be4eeb9c15,
,,,,,,,0,299,299,96,1,X, , , , ,,1500,1.5,611e508f1ded92caed24fc5b,001,2021-08-19_15h34.27.839,natb3,2021.2.3,MacIntel,60.0024001,611e508f1ded92caed24fc5b,611e07ecdcc96256ae8d5b80,611e6bdd611589be4eeb9c15,
,,,,space,0.3578,,0,300,300,260,1,R, , , , ,space,2000,2,611e508f1ded92caed24fc5b,001,2021-08-19_15h34.27.839,natb3,2021.2.3,MacIntel,60.0024001,611e508f1ded92caed24fc5b,611e07ecdcc96256ae8d5b80,611e6bdd611589be4eeb9c15,
,,,,space,0.4186,,0,301,301,2,1,E, , , , ,space,2500,2.5,611e508f1ded92caed24fc5b,001,2021-08-19_15h34.27.839,natb3,2021.2.3,MacIntel,60.0024001,611e508f1ded92caed24fc5b,611e07ecdcc96256ae8d5b80,611e6bdd611589be4eeb9c15,
,,,,space,0.4263,,0,302,302,109,1,U, , , , ,space,1500,1.5,611e508f1ded92caed24fc5b,001,2021-08-19_15h34.27.839,natb3,2021.2.3,MacIntel,60.0024001,611e508f1ded92caed24fc5b,611e07ecdcc96256ae8d5b80,611e6bdd611589be4eeb9c15,
,,,,space,0.3333,,0,303,303,278,1,J, , , , ,space,2000,2,611e508f1ded92caed24fc5b,001,2021-08-19_15h34.27.839,natb3,2021.2.3,MacIntel,60.0024001,611e508f1ded92caed24fc5b,611e07ecdcc96256ae8d5b80,611e6bdd611589be4eeb9c15,
,,,,,,,0,304,304,273,1,X, , , , ,,2000,2,611e508f1ded92caed24fc5b,001,2021-08-19_15h34.27.839,natb3,2021.2.3,MacIntel,60.0024001,611e508f1ded92caed24fc5b,611e07ecdcc96256ae8d5b80,611e6bdd611589be4eeb9c15,
,,,,space,0.495,,0,305,305,327,1,E, , , , ,space,1500,1.5,611e508f1ded92caed24fc5b,001,2021-08-19_15h34.27.839,natb3,2021.2.3,MacIntel,60.0024001,611e508f1ded92caed24fc5b,611e07ecdcc96256ae8d5b80,611e6bdd611589be4eeb9c15,
,,,,space,0.5124,,0,306,306,21,1,J, , , , ,space,1500,1.5,611e508f1ded92caed24fc5b,001,2021-08-19_15h34.27.839,natb3,2021.2.3,MacIntel,60.0024001,611e508f1ded92caed24fc5b,611e07ecdcc96256ae8d5b80,611e6bdd611589be4eeb9c15,
,,,,space,0.5484,,0,307,307,277,1,X,8,5, ,2,,2000,2,611e508f1ded92caed24fc5b,001,2021-08-19_15h34.27.839,natb3,2021.2.3,MacIntel,60.0024001,611e508f1ded92caed24fc5b,611e07ecdcc96256ae8d5b80,611e6bdd611589be4eeb9c15,
,,,,space,0.4301,,0,308,308,231,1,I, , , , ,space,2500,2.5,611e508f1ded92caed24fc5b,001,2021-08-19_15h34.27.839,natb3,2021.2.3,MacIntel,60.0024001,611e508f1ded92caed24fc5b,611e07ecdcc96256ae8d5b80,611e6bdd611589be4eeb9c15,
,,,,space,0.3595,,0,309,309,113,1,W, , , , ,space,2500,2.5,611e508f1ded92caed24fc5b,001,2021-08-19_15h34.27.839,natb3,2021.2.3,MacIntel,60.0024001,611e508f1ded92caed24fc5b,611e07ecdcc96256ae8d5b80,611e6bdd611589be4eeb9c15,
,,,,space,0.5765,,0,310,310,223,1,Q, , , , ,space,2000,2,611e508f1ded92caed24fc5b,001,2021-08-19_15h34.27.839,natb3,2021.2.3,MacIntel,60.0024001,611e508f1ded92caed24fc5b,611e07ecdcc96256ae8d5b80,611e6bdd611589be4eeb9c15,
,,,,space,0.412,,0,311,311,190,1,P, , , , ,space,2000,2,611e508f1ded92caed24fc5b,001,2021-08-19_15h34.27.839,natb3,2021.2.3,MacIntel,60.0024001,611e508f1ded92caed24fc5b,611e07ecdcc96256ae8d5b80,611e6bdd611589be4eeb9c15,
,,,,space,0.4589,,0,312,312,333,1,I, , , , ,space,1500,1.5,611e508f1ded92caed24fc5b,001,2021-08-19_15h34.27.839,natb3,2021.2.3,MacIntel,60.0024001,611e508f1ded92caed24fc5b,611e07ecdcc96256ae8d5b80,611e6bdd611589be4eeb9c15,
,,,,space,0.5132,,0,313,313,177,1,M, , , , ,space,2500,2.5,611e508f1ded92caed24fc5b,001,2021-08-19_15h34.27.839,natb3,2021.2.3,MacIntel,60.0024001,611e508f1ded92caed24fc5b,611e07ecdcc96256ae8d5b80,611e6bdd611589be4eeb9c15,
,,,,space,0.6804,,0,314,314,215,1,E, , , , ,space,2500,2.5,611e508f1ded92caed24fc5b,001,2021-08-19_15h34.27.839,natb3,2021.2.3,MacIntel,60.0024001,611e508f1ded92caed24fc5b,611e07ecdcc96256ae8d5b80,611e6bdd611589be4eeb9c15,
,,,,space,0.3761,,0,315,315,205,1,C, , , , ,space,2000,2,611e508f1ded92caed24fc5b,001,2021-08-19_15h34.27.839,natb3,2021.2.3,MacIntel,60.0024001,611e508f1ded92caed24fc5b,611e07ecdcc96256ae8d5b80,611e6bdd611589be4eeb9c15,
,,,,space,0.427,,0,316,316,328,1,R, , , , ,space,1500,1.5,611e508f1ded92caed24fc5b,001,2021-08-19_15h34.27.839,natb3,2021.2.3,MacIntel,60.0024001,611e508f1ded92caed24fc5b,611e07ecdcc96256ae8d5b80,611e6bdd611589be4eeb9c15,
,,,,space,0.4247,,0,317,317,8,1,U, , , , ,space,1500,1.5,611e508f1ded92caed24fc5b,001,2021-08-19_15h34.27.839,natb3,2021.2.3,MacIntel,60.0024001,611e508f1ded92caed24fc5b,611e07ecdcc96256ae8d5b80,611e6bdd611589be4eeb9c15,
,,,,,,,0,318,318,116,1,X, , , , ,,2000,2,611e508f1ded92caed24fc5b,001,2021-08-19_15h34.27.839,natb3,2021.2.3,MacIntel,60.0024001,611e508f1ded92caed24fc5b,611e07ecdcc96256ae8d5b80,611e6bdd611589be4eeb9c15,
,,,,,,,0,319,319,162,1,X,1,6, ,2,,1500,1.5,611e508f1ded92caed24fc5b,001,2021-08-19_15h34.27.839,natb3,2021.2.3,MacIntel,60.0024001,611e508f1ded92caed24fc5b,611e07ecdcc96256ae8d5b80,611e6bdd611589be4eeb9c15,
,,,,space,0.4765,,0,320,320,14,1,S, , , , ,space,2500,2.5,611e508f1ded92caed24fc5b,001,2021-08-19_15h34.27.839,natb3,2021.2.3,MacIntel,60.0024001,611e508f1ded92caed24fc5b,611e07ecdcc96256ae8d5b80,611e6bdd611589be4eeb9c15,
,,,,,,,0,321,321,191,1,X,1, ,3,4,,2500,2.5,611e508f1ded92caed24fc5b,001,2021-08-19_15h34.27.839,natb3,2021.2.3,MacIntel,60.0024001,611e508f1ded92caed24fc5b,611e07ecdcc96256ae8d5b80,611e6bdd611589be4eeb9c15,
,,,,space,0.5096,,0,322,322,214,1,W, , , , ,space,2000,2,611e508f1ded92caed24fc5b,001,2021-08-19_15h34.27.839,natb3,2021.2.3,MacIntel,60.0024001,611e508f1ded92caed24fc5b,611e07ecdcc96256ae8d5b80,611e6bdd611589be4eeb9c15,
,,,,space,0.4496,,0,323,323,47,1,P, , , , ,space,2000,2,611e508f1ded92caed24fc5b,001,2021-08-19_15h34.27.839,natb3,2021.2.3,MacIntel,60.0024001,611e508f1ded92caed24fc5b,611e07ecdcc96256ae8d5b80,611e6bdd611589be4eeb9c15,
,,,,space,0.4665,,0,324,324,81,1,S, , , , ,space,2000,2,611e508f1ded92caed24fc5b,001,2021-08-19_15h34.27.839,natb3,2021.2.3,MacIntel,60.0024001,611e508f1ded92caed24fc5b,611e07ecdcc96256ae8d5b80,611e6bdd611589be4eeb9c15,
,,,,,,,0,325,325,267,1,P, , , , ,space,2000,2,611e508f1ded92caed24fc5b,001,2021-08-19_15h34.27.839,natb3,2021.2.3,MacIntel,60.0024001,611e508f1ded92caed24fc5b,611e07ecdcc96256ae8d5b80,611e6bdd611589be4eeb9c15,
,,,,space,0.7915,,0,326,326,52,1,F, , , , ,space,1500,1.5,611e508f1ded92caed24fc5b,001,2021-08-19_15h34.27.839,natb3,2021.2.3,MacIntel,60.0024001,611e508f1ded92caed24fc5b,611e07ecdcc96256ae8d5b80,611e6bdd611589be4eeb9c15,
,,,,space,0.5355,,0,327,327,110,1,I, , , , ,space,1500,1.5,611e508f1ded92caed24fc5b,001,2021-08-19_15h34.27.839,natb3,2021.2.3,MacIntel,60.0024001,611e508f1ded92caed24fc5b,611e07ecdcc96256ae8d5b80,611e6bdd611589be4eeb9c15,
,,,,space,0.3642,,0,328,328,178,1,Q, , , , ,space,1500,1.5,611e508f1ded92caed24fc5b,001,2021-08-19_15h34.27.839,natb3,2021.2.3,MacIntel,60.0024001,611e508f1ded92caed24fc5b,611e07ecdcc96256ae8d5b80,611e6bdd611589be4eeb9c15,
,,,,space,0.3252,,0,329,329,42,1,U, , , , ,space,1500,1.5,611e508f1ded92caed24fc5b,001,2021-08-19_15h34.27.839,natb3,2021.2.3,MacIntel,60.0024001,611e508f1ded92caed24fc5b,611e07ecdcc96256ae8d5b80,611e6bdd611589be4eeb9c15,
,,,,,,,0,330,330,118,1,X, , , , ,,2000,2,611e508f1ded92caed24fc5b,001,2021-08-19_15h34.27.839,natb3,2021.2.3,MacIntel,60.0024001,611e508f1ded92caed24fc5b,611e07ecdcc96256ae8d5b80,611e6bdd611589be4eeb9c15,
,,,,space,0.4242,,0,331,331,76,1,I, , , , ,space,2000,2,611e508f1ded92caed24fc5b,001,2021-08-19_15h34.27.839,natb3,2021.2.3,MacIntel,60.0024001,611e508f1ded92caed24fc5b,611e07ecdcc96256ae8d5b80,611e6bdd611589be4eeb9c15,
,,,,space,0.3493,,0,332,332,49,1,S, , , , ,space,1500,1.5,611e508f1ded92caed24fc5b,001,2021-08-19_15h34.27.839,natb3,2021.2.3,MacIntel,60.0024001,611e508f1ded92caed24fc5b,611e07ecdcc96256ae8d5b80,611e6bdd611589be4eeb9c15,
,,,,space,0.3973,,0,333,333,30,1,N, , , , ,space,2500,2.5,611e508f1ded92caed24fc5b,001,2021-08-19_15h34.27.839,natb3,2021.2.3,MacIntel,60.0024001,611e508f1ded92caed24fc5b,611e07ecdcc96256ae8d5b80,611e6bdd611589be4eeb9c15,
,,,,space,0.3917,,0,334,334,303,1,A, , , , ,space,2000,2,611e508f1ded92caed24fc5b,001,2021-08-19_15h34.27.839,natb3,2021.2.3,MacIntel,60.0024001,611e508f1ded92caed24fc5b,611e07ecdcc96256ae8d5b80,611e6bdd611589be4eeb9c15,
,,,,space,0.4018,,0,335,335,137,1,C, , , , ,space,2500,2.5,611e508f1ded92caed24fc5b,001,2021-08-19_15h34.27.839,natb3,2021.2.3,MacIntel,60.0024001,611e508f1ded92caed24fc5b,611e07ecdcc96256ae8d5b80,611e6bdd611589be4eeb9c15,
