key_resp_2.keys,key_resp_2.rt,key_resp_3.keys,key_resp_3.rt,key_resp.keys,key_resp.rt,key_resp_4.keys,trials.thisRepN,trials.thisTrialN,trials.thisN,trials.thisIndex,trials.ran,stimulus,distractor1,distractor2,distractor3,distractor4,CorrAns,isi_duration,isi_dur_in_seconds,participant,session,date,expName,psychopyVersion,OS,frameRate,PROLIFIC_PID,STUDY_ID,SESSION_ID,key_resp_4.rt
return,14.3112,space,18.1945,space,0.4951,,0,0,0,184,1,T, , , , ,space,2000,2,611e283064ad72ef8c6f48cd,001,2021-08-19_15h34.26.572,natb3,2021.2.3,Win32,60.0276127,611e283064ad72ef8c6f48cd,611e07ecdcc96256ae8d5b80,611e6be04135754ebe6a41e0,
,,,,space,0.3825,,0,1,1,328,1,R, , , , ,space,1500,1.5,611e283064ad72ef8c6f48cd,001,2021-08-19_15h34.26.572,natb3,2021.2.3,Win32,60.0276127,611e283064ad72ef8c6f48cd,611e07ecdcc96256ae8d5b80,611e6be04135754ebe6a41e0,
,,,,space,0.3853,,0,2,2,56,1,J, , , , ,space,1500,1.5,611e283064ad72ef8c6f48cd,001,2021-08-19_15h34.26.572,natb3,2021.2.3,Win32,60.0276127,611e283064ad72ef8c6f48cd,611e07ecdcc96256ae8d5b80,611e6be04135754ebe6a41e0,
,,,,space,0.4353,,0,3,3,77,1,O, , , , ,space,2000,2,611e283064ad72ef8c6f48cd,001,2021-08-19_15h34.26.572,natb3,2021.2.3,Win32,60.0276127,611e283064ad72ef8c6f48cd,611e07ecdcc96256ae8d5b80,611e6be04135754ebe6a41e0,
,,,,,,,0,4,4,248,1,X, ,1,5, ,,1500,1.5,611e283064ad72ef8c6f48cd,001,2021-08-19_15h34.26.572,natb3,2021.2.3,Win32,60.0276127,611e283064ad72ef8c6f48cd,611e07ecdcc96256ae8d5b80,611e6be04135754ebe6a41e0,
,,,,space,0.3304,,0,5,5,10,1,O, , , , ,space,2000,2,611e283064ad72ef8c6f48cd,001,2021-08-19_15h34.26.572,natb3,2021.2.3,Win32,60.0276127,611e283064ad72ef8c6f48cd,611e07ecdcc96256ae8d5b80,611e6be04135754ebe6a41e0,
,,,,space,0.4092,,0,6,6,246,1,L, , , , ,space,2500,2.5,611e283064ad72ef8c6f48cd,001,2021-08-19_15h34.26.572,natb3,2021.2.3,Win32,60.0276127,611e283064ad72ef8c6f48cd,611e07ecdcc96256ae8d5b80,611e6be04135754ebe6a41e0,
,,,,,,,0,7,7,207,1,X,9, ,2, ,,2500,2.5,611e283064ad72ef8c6f48cd,001,2021-08-19_15h34.26.572,natb3,2021.2.3,Win32,60.0276127,611e283064ad72ef8c6f48cd,611e07ecdcc96256ae8d5b80,611e6be04135754ebe6a41e0,
,,,,space,0.3894,,0,8,8,143,1,M, , , , ,space,2500,2.5,611e283064ad72ef8c6f48cd,001,2021-08-19_15h34.26.572,natb3,2021.2.3,Win32,60.0276127,611e283064ad72ef8c6f48cd,611e07ecdcc96256ae8d5b80,611e6be04135754ebe6a41e0,
,,,,space,0.3713,,0,9,9,42,1,U, , , , ,space,1500,1.5,611e283064ad72ef8c6f48cd,001,2021-08-19_15h34.26.572,natb3,2021.2.3,Win32,60.0276127,611e283064ad72ef8c6f48cd,611e07ecdcc96256ae8d5b80,611e6be04135754ebe6a41e0,
,,,,space,0.3174,,0,10,10,8,1,U, , , , ,space,1500,1.5,611e283064ad72ef8c6f48cd,001,2021-08-19_15h34.26.572,natb3,2021.2.3,Win32,60.0276127,611e283064ad72ef8c6f48cd,611e07ecdcc96256ae8d5b80,611e6be04135754ebe6a41e0,
,,,,space,0.4186,,0,11,11,256,1,Q, , , , ,space,2000,2,611e283064ad72ef8c6f48cd,001,2021-08-19_15h34.26.572,natb3,2021.2.3,Win32,60.0276127,611e283064ad72ef8c6f48cd,611e07ecdcc96256ae8d5b80,611e6be04135754ebe6a41e0,
,,,,space,0.4862,,0,12,12,279,1,K, , , , ,space,2500,2.5,611e283064ad72ef8c6f48cd,001,2021-08-19_15h34.26.572,natb3,2021.2.3,Win32,60.0276127,611e283064ad72ef8c6f48cd,611e07ecdcc96256ae8d5b80,611e6be04135754ebe6a41e0,
,,,,space,0.4195,,0,13,13,217,1,T, , , , ,space,2500,2.5,611e283064ad72ef8c6f48cd,001,2021-08-19_15h34.26.572,natb3,2021.2.3,Win32,60.0276127,611e283064ad72ef8c6f48cd,611e07ecdcc96256ae8d5b80,611e6be04135754ebe6a41e0,
,,,,space,0.3554,,0,14,14,144,1,Q, , , , ,space,2500,2.5,611e283064ad72ef8c6f48cd,001,2021-08-19_15h34.26.572,natb3,2021.2.3,Win32,60.0276127,611e283064ad72ef8c6f48cd,611e07ecdcc96256ae8d5b80,611e6be04135754ebe6a41e0,
,,,,space,0.3226,,0,15,15,235,1,A, , , , ,space,1500,1.5,611e283064ad72ef8c6f48cd,001,2021-08-19_15h34.26.572,natb3,2021.2.3,Win32,60.0276127,611e283064ad72ef8c6f48cd,611e07ecdcc96256ae8d5b80,611e6be04135754ebe6a41e0,
,,,,space,0.3427,,0,16,16,61,1,C, , , , ,space,2000,2,611e283064ad72ef8c6f48cd,001,2021-08-19_15h34.26.572,natb3,2021.2.3,Win32,60.0276127,611e283064ad72ef8c6f48cd,611e07ecdcc96256ae8d5b80,611e6be04135754ebe6a41e0,
,,,,space,0.4005,,0,17,17,2,1,E, , , , ,space,2500,2.5,611e283064ad72ef8c6f48cd,001,2021-08-19_15h34.26.572,natb3,2021.2.3,Win32,60.0276127,611e283064ad72ef8c6f48cd,611e07ecdcc96256ae8d5b80,611e6be04135754ebe6a41e0,
,,,,space,0.3355,,0,18,18,317,1,C, , , , ,space,2000,2,611e283064ad72ef8c6f48cd,001,2021-08-19_15h34.26.572,natb3,2021.2.3,Win32,60.0276127,611e283064ad72ef8c6f48cd,611e07ecdcc96256ae8d5b80,611e6be04135754ebe6a41e0,
,,,,space,0.4546,,0,19,19,177,1,M, , , , ,space,2500,2.5,611e283064ad72ef8c6f48cd,001,2021-08-19_15h34.26.572,natb3,2021.2.3,Win32,60.0276127,611e283064ad72ef8c6f48cd,611e07ecdcc96256ae8d5b80,611e6be04135754ebe6a41e0,
,,,,space,0.3374,,0,20,20,111,1,O, , , , ,space,2000,2,611e283064ad72ef8c6f48cd,001,2021-08-19_15h34.26.572,natb3,2021.2.3,Win32,60.0276127,611e283064ad72ef8c6f48cd,611e07ecdcc96256ae8d5b80,611e6be04135754ebe6a41e0,
,,,,space,0.3279,,0,21,21,86,1,G, , , , ,space,2000,2,611e283064ad72ef8c6f48cd,001,2021-08-19_15h34.26.572,natb3,2021.2.3,Win32,60.0276127,611e283064ad72ef8c6f48cd,611e07ecdcc96256ae8d5b80,611e6be04135754ebe6a41e0,
,,,,,,,0,22,22,259,1,X,8, , ,3,,2500,2.5,611e283064ad72ef8c6f48cd,001,2021-08-19_15h34.26.572,natb3,2021.2.3,Win32,60.0276127,611e283064ad72ef8c6f48cd,611e07ecdcc96256ae8d5b80,611e6be04135754ebe6a41e0,
,,,,space,0.4123,,0,23,23,272,1,D, , , , ,space,2000,2,611e283064ad72ef8c6f48cd,001,2021-08-19_15h34.26.572,natb3,2021.2.3,Win32,60.0276127,611e283064ad72ef8c6f48cd,611e07ecdcc96256ae8d5b80,611e6be04135754ebe6a41e0,
,,,,space,0.3074,,0,24,24,225,1,E, , , , ,space,2000,2,611e283064ad72ef8c6f48cd,001,2021-08-19_15h34.26.572,natb3,2021.2.3,Win32,60.0276127,611e283064ad72ef8c6f48cd,611e07ecdcc96256ae8d5b80,611e6be04135754ebe6a41e0,
,,,,space,0.453,,0,25,25,292,1,E, , , , ,space,2000,2,611e283064ad72ef8c6f48cd,001,2021-08-19_15h34.26.572,natb3,2021.2.3,Win32,60.0276127,611e283064ad72ef8c6f48cd,611e07ecdcc96256ae8d5b80,611e6be04135754ebe6a41e0,
,,,,space,0.3342,,0,26,26,188,1,I, , , , ,space,2500,2.5,611e283064ad72ef8c6f48cd,001,2021-08-19_15h34.26.572,natb3,2021.2.3,Win32,60.0276127,611e283064ad72ef8c6f48cd,611e07ecdcc96256ae8d5b80,611e6be04135754ebe6a41e0,
,,,,space,0.3098,,0,27,27,16,1,D, , , , ,space,1500,1.5,611e283064ad72ef8c6f48cd,001,2021-08-19_15h34.26.572,natb3,2021.2.3,Win32,60.0276127,611e283064ad72ef8c6f48cd,611e07ecdcc96256ae8d5b80,611e6be04135754ebe6a41e0,
,,,,space,0.3118,,0,28,28,64,1,N, , , , ,space,2000,2,611e283064ad72ef8c6f48cd,001,2021-08-19_15h34.26.572,natb3,2021.2.3,Win32,60.0276127,611e283064ad72ef8c6f48cd,611e07ecdcc96256ae8d5b80,611e6be04135754ebe6a41e0,
,,,,space,0.3031,,0,29,29,3,1,R, , , , ,space,2000,2,611e283064ad72ef8c6f48cd,001,2021-08-19_15h34.26.572,natb3,2021.2.3,Win32,60.0276127,611e283064ad72ef8c6f48cd,611e07ecdcc96256ae8d5b80,611e6be04135754ebe6a41e0,
,,,,space,0.4587,,0,30,30,15,1,X, , , , ,,1500,1.5,611e283064ad72ef8c6f48cd,001,2021-08-19_15h34.26.572,natb3,2021.2.3,Win32,60.0276127,611e283064ad72ef8c6f48cd,611e07ecdcc96256ae8d5b80,611e6be04135754ebe6a41e0,
,,,,space,0.3602,,0,31,31,97,1,B, , , , ,space,2500,2.5,611e283064ad72ef8c6f48cd,001,2021-08-19_15h34.26.572,natb3,2021.2.3,Win32,60.0276127,611e283064ad72ef8c6f48cd,611e07ecdcc96256ae8d5b80,611e6be04135754ebe6a41e0,
,,,,,,,0,32,32,162,1,X,1,6, ,2,,1500,1.5,611e283064ad72ef8c6f48cd,001,2021-08-19_15h34.26.572,natb3,2021.2.3,Win32,60.0276127,611e283064ad72ef8c6f48cd,611e07ecdcc96256ae8d5b80,611e6be04135754ebe6a41e0,
,,,,space,0.3983,,0,33,33,81,1,S, , , , ,space,2000,2,611e283064ad72ef8c6f48cd,001,2021-08-19_15h34.26.572,natb3,2021.2.3,Win32,60.0276127,611e283064ad72ef8c6f48cd,611e07ecdcc96256ae8d5b80,611e6be04135754ebe6a41e0,
,,,,space,0.3513,,0,34,34,276,1,H, , , , ,space,2000,2,611e283064ad72ef8c6f48cd,001,2021-08-19_15h34.26.572,natb3,2021.2.3,Win32,60.0276127,611e283064ad72ef8c6f48cd,611e07ecdcc96256ae8d5b80,611e6be04135754ebe6a41e0,
,,,,,,,0,35,35,233,1,X, ,2, ,5,,1500,1.5,611e283064ad72ef8c6f48cd,001,2021-08-19_15h34.26.572,natb3,2021.2.3,Win32,60.0276127,611e283064ad72ef8c6f48cd,611e07ecdcc96256ae8d5b80,611e6be04135754ebe6a41e0,
,,,,space,0.39,,0,36,36,192,1,A, , , , ,space,2000,2,611e283064ad72ef8c6f48cd,001,2021-08-19_15h34.26.572,natb3,2021.2.3,Win32,60.0276127,611e283064ad72ef8c6f48cd,611e07ecdcc96256ae8d5b80,611e6be04135754ebe6a41e0,
,,,,space,0.3571,,0,37,37,224,1,W, , , , ,space,1500,1.5,611e283064ad72ef8c6f48cd,001,2021-08-19_15h34.26.572,natb3,2021.2.3,Win32,60.0276127,611e283064ad72ef8c6f48cd,611e07ecdcc96256ae8d5b80,611e6be04135754ebe6a41e0,
,,,,space,0.3901,,0,38,38,267,1,P, , , , ,space,2000,2,611e283064ad72ef8c6f48cd,001,2021-08-19_15h34.26.572,natb3,2021.2.3,Win32,60.0276127,611e283064ad72ef8c6f48cd,611e07ecdcc96256ae8d5b80,611e6be04135754ebe6a41e0,
,,,,,,,0,39,39,179,1,X, ,9, ,2,,1500,1.5,611e283064ad72ef8c6f48cd,001,2021-08-19_15h34.26.572,natb3,2021.2.3,Win32,60.0276127,611e283064ad72ef8c6f48cd,611e07ecdcc96256ae8d5b80,611e6be04135754ebe6a41e0,
,,,,space,0.3504,,0,40,40,131,1,G, , , , ,space,1500,1.5,611e283064ad72ef8c6f48cd,001,2021-08-19_15h34.26.572,natb3,2021.2.3,Win32,60.0276127,611e283064ad72ef8c6f48cd,611e07ecdcc96256ae8d5b80,611e6be04135754ebe6a41e0,
,,,,space,0.3501,,0,41,41,238,1,D, , , , ,space,1500,1.5,611e283064ad72ef8c6f48cd,001,2021-08-19_15h34.26.572,natb3,2021.2.3,Win32,60.0276127,611e283064ad72ef8c6f48cd,611e07ecdcc96256ae8d5b80,611e6be04135754ebe6a41e0,
,,,,space,0.3751,,0,42,42,169,1,L, , , , ,space,2500,2.5,611e283064ad72ef8c6f48cd,001,2021-08-19_15h34.26.572,natb3,2021.2.3,Win32,60.0276127,611e283064ad72ef8c6f48cd,611e07ecdcc96256ae8d5b80,611e6be04135754ebe6a41e0,
,,,,space,0.3367,,0,43,43,70,1,E, , , , ,space,2500,2.5,611e283064ad72ef8c6f48cd,001,2021-08-19_15h34.26.572,natb3,2021.2.3,Win32,60.0276127,611e283064ad72ef8c6f48cd,611e07ecdcc96256ae8d5b80,611e6be04135754ebe6a41e0,
,,,,space,0.452,,0,44,44,250,1,V, , , , ,space,2000,2,611e283064ad72ef8c6f48cd,001,2021-08-19_15h34.26.572,natb3,2021.2.3,Win32,60.0276127,611e283064ad72ef8c6f48cd,611e07ecdcc96256ae8d5b80,611e6be04135754ebe6a41e0,
,,,,space,0.4036,,0,45,45,85,1,F, , , , ,space,2500,2.5,611e283064ad72ef8c6f48cd,001,2021-08-19_15h34.26.572,natb3,2021.2.3,Win32,60.0276127,611e283064ad72ef8c6f48cd,611e07ecdcc96256ae8d5b80,611e6be04135754ebe6a41e0,
,,,,space,0.3316,,0,46,46,180,1,W, , , , ,space,2000,2,611e283064ad72ef8c6f48cd,001,2021-08-19_15h34.26.572,natb3,2021.2.3,Win32,60.0276127,611e283064ad72ef8c6f48cd,611e07ecdcc96256ae8d5b80,611e6be04135754ebe6a41e0,
,,,,space,0.4552,,0,47,47,76,1,I, , , , ,space,2000,2,611e283064ad72ef8c6f48cd,001,2021-08-19_15h34.26.572,natb3,2021.2.3,Win32,60.0276127,611e283064ad72ef8c6f48cd,611e07ecdcc96256ae8d5b80,611e6be04135754ebe6a41e0,
,,,,,,,0,48,48,129,1,X,2,3,5, ,,1500,1.5,611e283064ad72ef8c6f48cd,001,2021-08-19_15h34.26.572,natb3,2021.2.3,Win32,60.0276127,611e283064ad72ef8c6f48cd,611e07ecdcc96256ae8d5b80,611e6be04135754ebe6a41e0,
,,,,space,0.3605,,0,49,49,181,1,E, , , , ,space,1500,1.5,611e283064ad72ef8c6f48cd,001,2021-08-19_15h34.26.572,natb3,2021.2.3,Win32,60.0276127,611e283064ad72ef8c6f48cd,611e07ecdcc96256ae8d5b80,611e6be04135754ebe6a41e0,
,,,,space,0.3118,,0,50,50,241,1,G, , , , ,space,2500,2.5,611e283064ad72ef8c6f48cd,001,2021-08-19_15h34.26.572,natb3,2021.2.3,Win32,60.0276127,611e283064ad72ef8c6f48cd,611e07ecdcc96256ae8d5b80,611e6be04135754ebe6a41e0,
,,,,space,0.3106,,0,51,51,136,1,Z, , , , ,space,2500,2.5,611e283064ad72ef8c6f48cd,001,2021-08-19_15h34.26.572,natb3,2021.2.3,Win32,60.0276127,611e283064ad72ef8c6f48cd,611e07ecdcc96256ae8d5b80,611e6be04135754ebe6a41e0,
,,,,space,0.3507,,0,52,52,154,1,I, , , , ,space,2500,2.5,611e283064ad72ef8c6f48cd,001,2021-08-19_15h34.26.572,natb3,2021.2.3,Win32,60.0276127,611e283064ad72ef8c6f48cd,611e07ecdcc96256ae8d5b80,611e6be04135754ebe6a41e0,
,,,,,,,0,53,53,315,1,X, , , , ,,2500,2.5,611e283064ad72ef8c6f48cd,001,2021-08-19_15h34.26.572,natb3,2021.2.3,Win32,60.0276127,611e283064ad72ef8c6f48cd,611e07ecdcc96256ae8d5b80,611e6be04135754ebe6a41e0,
,,,,,,,0,54,54,12,1,X, , , , ,,1500,1.5,611e283064ad72ef8c6f48cd,001,2021-08-19_15h34.26.572,natb3,2021.2.3,Win32,60.0276127,611e283064ad72ef8c6f48cd,611e07ecdcc96256ae8d5b80,611e6be04135754ebe6a41e0,
,,,,space,0.4139,,0,55,55,109,1,U, , , , ,space,1500,1.5,611e283064ad72ef8c6f48cd,001,2021-08-19_15h34.26.572,natb3,2021.2.3,Win32,60.0276127,611e283064ad72ef8c6f48cd,611e07ecdcc96256ae8d5b80,611e6be04135754ebe6a41e0,
,,,,space,0.3286,,0,56,56,103,1,W, , , , ,space,2000,2,611e283064ad72ef8c6f48cd,001,2021-08-19_15h34.26.572,natb3,2021.2.3,Win32,60.0276127,611e283064ad72ef8c6f48cd,611e07ecdcc96256ae8d5b80,611e6be04135754ebe6a41e0,
,,,,,,,0,57,57,35,1,X, , , , ,,2500,2.5,611e283064ad72ef8c6f48cd,001,2021-08-19_15h34.26.572,natb3,2021.2.3,Win32,60.0276127,611e283064ad72ef8c6f48cd,611e07ecdcc96256ae8d5b80,611e6be04135754ebe6a41e0,
,,,,space,0.3661,,0,58,58,120,1,U, , , , ,space,1500,1.5,611e283064ad72ef8c6f48cd,001,2021-08-19_15h34.26.572,natb3,2021.2.3,Win32,60.0276127,611e283064ad72ef8c6f48cd,611e07ecdcc96256ae8d5b80,611e6be04135754ebe6a41e0,
,,,,space,0.445,,0,59,59,216,1,R, , , , ,space,1500,1.5,611e283064ad72ef8c6f48cd,001,2021-08-19_15h34.26.572,natb3,2021.2.3,Win32,60.0276127,611e283064ad72ef8c6f48cd,611e07ecdcc96256ae8d5b80,611e6be04135754ebe6a41e0,
,,,,space,0.3524,,0,60,60,157,1,A, , , , ,space,2500,2.5,611e283064ad72ef8c6f48cd,001,2021-08-19_15h34.26.572,natb3,2021.2.3,Win32,60.0276127,611e283064ad72ef8c6f48cd,611e07ecdcc96256ae8d5b80,611e6be04135754ebe6a41e0,
,,,,,,,0,61,61,107,1,X,9,3, ,2,,2000,2,611e283064ad72ef8c6f48cd,001,2021-08-19_15h34.26.572,natb3,2021.2.3,Win32,60.0276127,611e283064ad72ef8c6f48cd,611e07ecdcc96256ae8d5b80,611e6be04135754ebe6a41e0,
,,,,space,0.3238,,0,62,62,34,1,Q, , , , ,space,2500,2.5,611e283064ad72ef8c6f48cd,001,2021-08-19_15h34.26.572,natb3,2021.2.3,Win32,60.0276127,611e283064ad72ef8c6f48cd,611e07ecdcc96256ae8d5b80,611e6be04135754ebe6a41e0,
,,,,space,0.3388,,0,63,63,62,1,V, , , , ,space,1500,1.5,611e283064ad72ef8c6f48cd,001,2021-08-19_15h34.26.572,natb3,2021.2.3,Win32,60.0276127,611e283064ad72ef8c6f48cd,611e07ecdcc96256ae8d5b80,611e6be04135754ebe6a41e0,
,,,,,,,0,64,64,43,1,X, ,6, ,2,,2500,2.5,611e283064ad72ef8c6f48cd,001,2021-08-19_15h34.26.572,natb3,2021.2.3,Win32,60.0276127,611e283064ad72ef8c6f48cd,611e07ecdcc96256ae8d5b80,611e6be04135754ebe6a41e0,
,,,,space,0.3904,,0,65,65,176,1,N, , , , ,space,1500,1.5,611e283064ad72ef8c6f48cd,001,2021-08-19_15h34.26.572,natb3,2021.2.3,Win32,60.0276127,611e283064ad72ef8c6f48cd,611e07ecdcc96256ae8d5b80,611e6be04135754ebe6a41e0,
,,,,space,0.3295,,0,66,66,185,1,Y, , , , ,space,2500,2.5,611e283064ad72ef8c6f48cd,001,2021-08-19_15h34.26.572,natb3,2021.2.3,Win32,60.0276127,611e283064ad72ef8c6f48cd,611e07ecdcc96256ae8d5b80,611e6be04135754ebe6a41e0,
,,,,space,0.3673,,0,67,67,194,1,D, , , , ,space,2000,2,611e283064ad72ef8c6f48cd,001,2021-08-19_15h34.26.572,natb3,2021.2.3,Win32,60.0276127,611e283064ad72ef8c6f48cd,611e07ecdcc96256ae8d5b80,611e6be04135754ebe6a41e0,
,,,,,,,0,68,68,322,1,X, , ,1,6,,2000,2,611e283064ad72ef8c6f48cd,001,2021-08-19_15h34.26.572,natb3,2021.2.3,Win32,60.0276127,611e283064ad72ef8c6f48cd,611e07ecdcc96256ae8d5b80,611e6be04135754ebe6a41e0,
,,,,,,,0,69,69,295,1,X,8,7,5, ,,2500,2.5,611e283064ad72ef8c6f48cd,001,2021-08-19_15h34.26.572,natb3,2021.2.3,Win32,60.0276127,611e283064ad72ef8c6f48cd,611e07ecdcc96256ae8d5b80,611e6be04135754ebe6a41e0,
,,,,,,,0,70,70,271,1,X, , , , ,,2500,2.5,611e283064ad72ef8c6f48cd,001,2021-08-19_15h34.26.572,natb3,2021.2.3,Win32,60.0276127,611e283064ad72ef8c6f48cd,611e07ecdcc96256ae8d5b80,611e6be04135754ebe6a41e0,
,,,,space,0.4084,,0,71,71,327,1,E, , , , ,space,1500,1.5,611e283064ad72ef8c6f48cd,001,2021-08-19_15h34.26.572,natb3,2021.2.3,Win32,60.0276127,611e283064ad72ef8c6f48cd,611e07ecdcc96256ae8d5b80,611e6be04135754ebe6a41e0,
,,,,,,,0,72,72,252,1,X,3, ,6,9,,2000,2,611e283064ad72ef8c6f48cd,001,2021-08-19_15h34.26.572,natb3,2021.2.3,Win32,60.0276127,611e283064ad72ef8c6f48cd,611e07ecdcc96256ae8d5b80,611e6be04135754ebe6a41e0,
,,,,space,0.3481,,0,73,73,264,1,U, , , , ,space,2000,2,611e283064ad72ef8c6f48cd,001,2021-08-19_15h34.26.572,natb3,2021.2.3,Win32,60.0276127,611e283064ad72ef8c6f48cd,611e07ecdcc96256ae8d5b80,611e6be04135754ebe6a41e0,
,,,,space,0.3505,,0,74,74,152,1,U, , , , ,space,2000,2,611e283064ad72ef8c6f48cd,001,2021-08-19_15h34.26.572,natb3,2021.2.3,Win32,60.0276127,611e283064ad72ef8c6f48cd,611e07ecdcc96256ae8d5b80,611e6be04135754ebe6a41e0,
,,,,,,,0,75,75,213,1,X, , , , ,,2500,2.5,611e283064ad72ef8c6f48cd,001,2021-08-19_15h34.26.572,natb3,2021.2.3,Win32,60.0276127,611e283064ad72ef8c6f48cd,611e07ecdcc96256ae8d5b80,611e6be04135754ebe6a41e0,
,,,,space,0.5335,,0,76,76,72,1,T, , , , ,space,1500,1.5,611e283064ad72ef8c6f48cd,001,2021-08-19_15h34.26.572,natb3,2021.2.3,Win32,60.0276127,611e283064ad72ef8c6f48cd,611e07ecdcc96256ae8d5b80,611e6be04135754ebe6a41e0,
,,,,,,,0,77,77,200,1,X,7, ,5,3,,1500,1.5,611e283064ad72ef8c6f48cd,001,2021-08-19_15h34.26.572,natb3,2021.2.3,Win32,60.0276127,611e283064ad72ef8c6f48cd,611e07ecdcc96256ae8d5b80,611e6be04135754ebe6a41e0,
,,,,space,0.4666,,0,78,78,242,1,H, , , , ,space,2500,2.5,611e283064ad72ef8c6f48cd,001,2021-08-19_15h34.26.572,natb3,2021.2.3,Win32,60.0276127,611e283064ad72ef8c6f48cd,611e07ecdcc96256ae8d5b80,611e6be04135754ebe6a41e0,
,,,,space,0.3371,,0,79,79,159,1,S, , , , ,space,2500,2.5,611e283064ad72ef8c6f48cd,001,2021-08-19_15h34.26.572,natb3,2021.2.3,Win32,60.0276127,611e283064ad72ef8c6f48cd,611e07ecdcc96256ae8d5b80,611e6be04135754ebe6a41e0,
,,,,space,0.449,,0,80,80,90,1,K, , , , ,space,2000,2,611e283064ad72ef8c6f48cd,001,2021-08-19_15h34.26.572,natb3,2021.2.3,Win32,60.0276127,611e283064ad72ef8c6f48cd,611e07ecdcc96256ae8d5b80,611e6be04135754ebe6a41e0,
,,,,space,0.3147,,0,81,81,204,1,Z, , , , ,space,2000,2,611e283064ad72ef8c6f48cd,001,2021-08-19_15h34.26.572,natb3,2021.2.3,Win32,60.0276127,611e283064ad72ef8c6f48cd,611e07ecdcc96256ae8d5b80,611e6be04135754ebe6a41e0,
,,,,space,0.4645,,0,82,82,274,1,F, , , , ,space,2000,2,611e283064ad72ef8c6f48cd,001,2021-08-19_15h34.26.572,natb3,2021.2.3,Win32,60.0276127,611e283064ad72ef8c6f48cd,611e07ecdcc96256ae8d5b80,611e6be04135754ebe6a41e0,
,,,,space,0.44,,0,83,83,88,1,J, , , , ,space,2500,2.5,611e283064ad72ef8c6f48cd,001,2021-08-19_15h34.26.572,natb3,2021.2.3,Win32,60.0276127,611e283064ad72ef8c6f48cd,611e07ecdcc96256ae8d5b80,611e6be04135754ebe6a41e0,
,,,,space,0.4654,,0,84,84,286,1,N, , , , ,space,1500,1.5,611e283064ad72ef8c6f48cd,001,2021-08-19_15h34.26.572,natb3,2021.2.3,Win32,60.0276127,611e283064ad72ef8c6f48cd,611e07ecdcc96256ae8d5b80,611e6be04135754ebe6a41e0,
,,,,space,0.3826,,0,85,85,104,1,E, , , , ,space,2000,2,611e283064ad72ef8c6f48cd,001,2021-08-19_15h34.26.572,natb3,2021.2.3,Win32,60.0276127,611e283064ad72ef8c6f48cd,611e07ecdcc96256ae8d5b80,611e6be04135754ebe6a41e0,
,,,,space,0.2983,,0,86,86,151,1,Y, , , , ,space,2500,2.5,611e283064ad72ef8c6f48cd,001,2021-08-19_15h34.26.572,natb3,2021.2.3,Win32,60.0276127,611e283064ad72ef8c6f48cd,611e07ecdcc96256ae8d5b80,611e6be04135754ebe6a41e0,
,,,,space,0.33,,0,87,87,137,1,C, , , , ,space,2500,2.5,611e283064ad72ef8c6f48cd,001,2021-08-19_15h34.26.572,natb3,2021.2.3,Win32,60.0276127,611e283064ad72ef8c6f48cd,611e07ecdcc96256ae8d5b80,611e6be04135754ebe6a41e0,
,,,,space,0.3207,,0,88,88,245,1,K, , , , ,space,2000,2,611e283064ad72ef8c6f48cd,001,2021-08-19_15h34.26.572,natb3,2021.2.3,Win32,60.0276127,611e283064ad72ef8c6f48cd,611e07ecdcc96256ae8d5b80,611e6be04135754ebe6a41e0,
,,,,space,0.3733,,0,89,89,310,1,J, , , , ,space,2500,2.5,611e283064ad72ef8c6f48cd,001,2021-08-19_15h34.26.572,natb3,2021.2.3,Win32,60.0276127,611e283064ad72ef8c6f48cd,611e07ecdcc96256ae8d5b80,611e6be04135754ebe6a41e0,
,,,,space,0.3498,,0,90,90,127,1,S, , , , ,space,2500,2.5,611e283064ad72ef8c6f48cd,001,2021-08-19_15h34.26.572,natb3,2021.2.3,Win32,60.0276127,611e283064ad72ef8c6f48cd,611e07ecdcc96256ae8d5b80,611e6be04135754ebe6a41e0,
,,,,space,0.4321,,0,91,91,155,1,O, , , , ,space,1500,1.5,611e283064ad72ef8c6f48cd,001,2021-08-19_15h34.26.572,natb3,2021.2.3,Win32,60.0276127,611e283064ad72ef8c6f48cd,611e07ecdcc96256ae8d5b80,611e6be04135754ebe6a41e0,
,,,,space,0.3663,,0,92,92,6,1,Y, , , , ,space,2500,2.5,611e283064ad72ef8c6f48cd,001,2021-08-19_15h34.26.572,natb3,2021.2.3,Win32,60.0276127,611e283064ad72ef8c6f48cd,611e07ecdcc96256ae8d5b80,611e6be04135754ebe6a41e0,
,,,,space,0.5076,,0,93,93,334,1,O, , , , ,space,1500,1.5,611e283064ad72ef8c6f48cd,001,2021-08-19_15h34.26.572,natb3,2021.2.3,Win32,60.0276127,611e283064ad72ef8c6f48cd,611e07ecdcc96256ae8d5b80,611e6be04135754ebe6a41e0,
,,,,space,0.3308,,0,94,94,95,1,V, , , , ,space,1500,1.5,611e283064ad72ef8c6f48cd,001,2021-08-19_15h34.26.572,natb3,2021.2.3,Win32,60.0276127,611e283064ad72ef8c6f48cd,611e07ecdcc96256ae8d5b80,611e6be04135754ebe6a41e0,
,,,,space,0.3215,,0,95,95,49,1,S, , , , ,space,1500,1.5,611e283064ad72ef8c6f48cd,001,2021-08-19_15h34.26.572,natb3,2021.2.3,Win32,60.0276127,611e283064ad72ef8c6f48cd,611e07ecdcc96256ae8d5b80,611e6be04135754ebe6a41e0,
,,,,space,0.3078,,0,96,96,98,1,X, , , , ,,2500,2.5,611e283064ad72ef8c6f48cd,001,2021-08-19_15h34.26.572,natb3,2021.2.3,Win32,60.0276127,611e283064ad72ef8c6f48cd,611e07ecdcc96256ae8d5b80,611e6be04135754ebe6a41e0,
,,,,,,,0,97,97,168,1,X, , , , ,,2500,2.5,611e283064ad72ef8c6f48cd,001,2021-08-19_15h34.26.572,natb3,2021.2.3,Win32,60.0276127,611e283064ad72ef8c6f48cd,611e07ecdcc96256ae8d5b80,611e6be04135754ebe6a41e0,
,,,,space,0.3697,,0,98,98,270,1,S, , , , ,space,1500,1.5,611e283064ad72ef8c6f48cd,001,2021-08-19_15h34.26.572,natb3,2021.2.3,Win32,60.0276127,611e283064ad72ef8c6f48cd,611e07ecdcc96256ae8d5b80,611e6be04135754ebe6a41e0,
,,,,space,0.4334,,0,99,99,160,1,D, , , , ,space,1500,1.5,611e283064ad72ef8c6f48cd,001,2021-08-19_15h34.26.572,natb3,2021.2.3,Win32,60.0276127,611e283064ad72ef8c6f48cd,611e07ecdcc96256ae8d5b80,611e6be04135754ebe6a41e0,
,,,,space,0.403,,0,100,100,146,1,W, , , , ,space,1500,1.5,611e283064ad72ef8c6f48cd,001,2021-08-19_15h34.26.572,natb3,2021.2.3,Win32,60.0276127,611e283064ad72ef8c6f48cd,611e07ecdcc96256ae8d5b80,611e6be04135754ebe6a41e0,
,,,,space,0.3447,,0,101,101,266,1,O, , , , ,space,1500,1.5,611e283064ad72ef8c6f48cd,001,2021-08-19_15h34.26.572,natb3,2021.2.3,Win32,60.0276127,611e283064ad72ef8c6f48cd,611e07ecdcc96256ae8d5b80,611e6be04135754ebe6a41e0,
,,,,space,0.3695,,0,102,102,278,1,J, , , , ,space,2000,2,611e283064ad72ef8c6f48cd,001,2021-08-19_15h34.26.572,natb3,2021.2.3,Win32,60.0276127,611e283064ad72ef8c6f48cd,611e07ecdcc96256ae8d5b80,611e6be04135754ebe6a41e0,
,,,,space,0.4025,,0,103,103,196,1,F, , , , ,space,1500,1.5,611e283064ad72ef8c6f48cd,001,2021-08-19_15h34.26.572,natb3,2021.2.3,Win32,60.0276127,611e283064ad72ef8c6f48cd,611e07ecdcc96256ae8d5b80,611e6be04135754ebe6a41e0,
,,,,space,0.3695,,0,104,104,47,1,P, , , , ,space,2000,2,611e283064ad72ef8c6f48cd,001,2021-08-19_15h34.26.572,natb3,2021.2.3,Win32,60.0276127,611e283064ad72ef8c6f48cd,611e07ecdcc96256ae8d5b80,611e6be04135754ebe6a41e0,
,,,,,,,0,105,105,302,1,X, , , , ,,2000,2,611e283064ad72ef8c6f48cd,001,2021-08-19_15h34.26.572,natb3,2021.2.3,Win32,60.0276127,611e283064ad72ef8c6f48cd,611e07ecdcc96256ae8d5b80,611e6be04135754ebe6a41e0,
,,,,space,0.4845,,0,106,106,134,1,J, , , , ,space,2000,2,611e283064ad72ef8c6f48cd,001,2021-08-19_15h34.26.572,natb3,2021.2.3,Win32,60.0276127,611e283064ad72ef8c6f48cd,611e07ecdcc96256ae8d5b80,611e6be04135754ebe6a41e0,
,,,,,,,0,107,107,60,1,X,7,3,5, ,,1500,1.5,611e283064ad72ef8c6f48cd,001,2021-08-19_15h34.26.572,natb3,2021.2.3,Win32,60.0276127,611e283064ad72ef8c6f48cd,611e07ecdcc96256ae8d5b80,611e6be04135754ebe6a41e0,
,,,,,,,0,108,108,69,1,X, , , , ,,1500,1.5,611e283064ad72ef8c6f48cd,001,2021-08-19_15h34.26.572,natb3,2021.2.3,Win32,60.0276127,611e283064ad72ef8c6f48cd,611e07ecdcc96256ae8d5b80,611e6be04135754ebe6a41e0,
,,,,,,,0,109,109,7,1,X, , , , ,,1500,1.5,611e283064ad72ef8c6f48cd,001,2021-08-19_15h34.26.572,natb3,2021.2.3,Win32,60.0276127,611e283064ad72ef8c6f48cd,611e07ecdcc96256ae8d5b80,611e6be04135754ebe6a41e0,
,,,,space,0.4168,,0,110,110,135,1,K, , , , ,space,1500,1.5,611e283064ad72ef8c6f48cd,001,2021-08-19_15h34.26.572,natb3,2021.2.3,Win32,60.0276127,611e283064ad72ef8c6f48cd,611e07ecdcc96256ae8d5b80,611e6be04135754ebe6a41e0,
,,,,space,0.3451,,0,111,111,100,1,M, , , , ,space,2000,2,611e283064ad72ef8c6f48cd,001,2021-08-19_15h34.26.572,natb3,2021.2.3,Win32,60.0276127,611e283064ad72ef8c6f48cd,611e07ecdcc96256ae8d5b80,611e6be04135754ebe6a41e0,
,,,,space,0.384,,0,112,112,65,1,M, , , , ,space,1500,1.5,611e283064ad72ef8c6f48cd,001,2021-08-19_15h34.26.572,natb3,2021.2.3,Win32,60.0276127,611e283064ad72ef8c6f48cd,611e07ecdcc96256ae8d5b80,611e6be04135754ebe6a41e0,
,,,,,,,0,113,113,229,1,X,8, ,2,6,,2500,2.5,611e283064ad72ef8c6f48cd,001,2021-08-19_15h34.26.572,natb3,2021.2.3,Win32,60.0276127,611e283064ad72ef8c6f48cd,611e07ecdcc96256ae8d5b80,611e6be04135754ebe6a41e0,
,,,,space,0.5746,,0,114,114,80,1,A, , , , ,space,2000,2,611e283064ad72ef8c6f48cd,001,2021-08-19_15h34.26.572,natb3,2021.2.3,Win32,60.0276127,611e283064ad72ef8c6f48cd,611e07ecdcc96256ae8d5b80,611e6be04135754ebe6a41e0,
,,,,space,0.3814,,0,115,115,300,1,O, , , , ,space,2500,2.5,611e283064ad72ef8c6f48cd,001,2021-08-19_15h34.26.572,natb3,2021.2.3,Win32,60.0276127,611e283064ad72ef8c6f48cd,611e07ecdcc96256ae8d5b80,611e6be04135754ebe6a41e0,
,,,,space,0.3344,,0,116,116,309,1,H, , , , ,space,2500,2.5,611e283064ad72ef8c6f48cd,001,2021-08-19_15h34.26.572,natb3,2021.2.3,Win32,60.0276127,611e283064ad72ef8c6f48cd,611e07ecdcc96256ae8d5b80,611e6be04135754ebe6a41e0,
,,,,space,0.3417,,0,117,117,214,1,W, , , , ,space,2000,2,611e283064ad72ef8c6f48cd,001,2021-08-19_15h34.26.572,natb3,2021.2.3,Win32,60.0276127,611e283064ad72ef8c6f48cd,611e07ecdcc96256ae8d5b80,611e6be04135754ebe6a41e0,
,,,,space,0.5258,,0,118,118,326,1,W, , , , ,space,2000,2,611e283064ad72ef8c6f48cd,001,2021-08-19_15h34.26.572,natb3,2021.2.3,Win32,60.0276127,611e283064ad72ef8c6f48cd,611e07ecdcc96256ae8d5b80,611e6be04135754ebe6a41e0,
,,,,space,0.3417,,0,119,119,269,1,A, , , , ,space,2500,2.5,611e283064ad72ef8c6f48cd,001,2021-08-19_15h34.26.572,natb3,2021.2.3,Win32,60.0276127,611e283064ad72ef8c6f48cd,611e07ecdcc96256ae8d5b80,611e6be04135754ebe6a41e0,
,,,,space,0.4777,,0,120,120,52,1,F, , , , ,space,1500,1.5,611e283064ad72ef8c6f48cd,001,2021-08-19_15h34.26.572,natb3,2021.2.3,Win32,60.0276127,611e283064ad72ef8c6f48cd,611e07ecdcc96256ae8d5b80,611e6be04135754ebe6a41e0,
,,,,space,0.365,,0,121,121,333,1,I, , , , ,space,1500,1.5,611e283064ad72ef8c6f48cd,001,2021-08-19_15h34.26.572,natb3,2021.2.3,Win32,60.0276127,611e283064ad72ef8c6f48cd,611e07ecdcc96256ae8d5b80,611e6be04135754ebe6a41e0,
,,,,space,0.3464,,0,122,122,165,1,J, , , , ,space,2500,2.5,611e283064ad72ef8c6f48cd,001,2021-08-19_15h34.26.572,natb3,2021.2.3,Win32,60.0276127,611e283064ad72ef8c6f48cd,611e07ecdcc96256ae8d5b80,611e6be04135754ebe6a41e0,
,,,,space,0.4121,,0,123,123,285,1,B, , , , ,space,1500,1.5,611e283064ad72ef8c6f48cd,001,2021-08-19_15h34.26.572,natb3,2021.2.3,Win32,60.0276127,611e283064ad72ef8c6f48cd,611e07ecdcc96256ae8d5b80,611e6be04135754ebe6a41e0,
,,,,space,0.3168,,0,124,124,167,1,K, , , , ,space,1500,1.5,611e283064ad72ef8c6f48cd,001,2021-08-19_15h34.26.572,natb3,2021.2.3,Win32,60.0276127,611e283064ad72ef8c6f48cd,611e07ecdcc96256ae8d5b80,611e6be04135754ebe6a41e0,
,,,,space,0.3828,,0,125,125,71,1,R, , , , ,space,2500,2.5,611e283064ad72ef8c6f48cd,001,2021-08-19_15h34.26.572,natb3,2021.2.3,Win32,60.0276127,611e283064ad72ef8c6f48cd,611e07ecdcc96256ae8d5b80,611e6be04135754ebe6a41e0,
,,,,space,0.3462,,0,126,126,125,1,X, , , , ,,2000,2,611e283064ad72ef8c6f48cd,001,2021-08-19_15h34.26.572,natb3,2021.2.3,Win32,60.0276127,611e283064ad72ef8c6f48cd,611e07ecdcc96256ae8d5b80,611e6be04135754ebe6a41e0,
,,,,space,0.3898,,0,127,127,206,1,V, , , , ,space,2000,2,611e283064ad72ef8c6f48cd,001,2021-08-19_15h34.26.572,natb3,2021.2.3,Win32,60.0276127,611e283064ad72ef8c6f48cd,611e07ecdcc96256ae8d5b80,611e6be04135754ebe6a41e0,
,,,,space,0.3716,,0,128,128,186,1,U, , , , ,space,2500,2.5,611e283064ad72ef8c6f48cd,001,2021-08-19_15h34.26.572,natb3,2021.2.3,Win32,60.0276127,611e283064ad72ef8c6f48cd,611e07ecdcc96256ae8d5b80,611e6be04135754ebe6a41e0,
,,,,space,0.3523,,0,129,129,14,1,S, , , , ,space,2500,2.5,611e283064ad72ef8c6f48cd,001,2021-08-19_15h34.26.572,natb3,2021.2.3,Win32,60.0276127,611e283064ad72ef8c6f48cd,611e07ecdcc96256ae8d5b80,611e6be04135754ebe6a41e0,
,,,,space,0.3645,,0,130,130,126,1,A, , , , ,space,2500,2.5,611e283064ad72ef8c6f48cd,001,2021-08-19_15h34.26.572,natb3,2021.2.3,Win32,60.0276127,611e283064ad72ef8c6f48cd,611e07ecdcc96256ae8d5b80,611e6be04135754ebe6a41e0,
,,,,space,0.3675,,0,131,131,228,1,Y, , , , ,space,2000,2,611e283064ad72ef8c6f48cd,001,2021-08-19_15h34.26.572,natb3,2021.2.3,Win32,60.0276127,611e283064ad72ef8c6f48cd,611e07ecdcc96256ae8d5b80,611e6be04135754ebe6a41e0,
,,,,space,0.375,,0,132,132,190,1,P, , , , ,space,2000,2,611e283064ad72ef8c6f48cd,001,2021-08-19_15h34.26.572,natb3,2021.2.3,Win32,60.0276127,611e283064ad72ef8c6f48cd,611e07ecdcc96256ae8d5b80,611e6be04135754ebe6a41e0,
,,,,space,0.4057,,0,133,133,113,1,W, , , , ,space,2500,2.5,611e283064ad72ef8c6f48cd,001,2021-08-19_15h34.26.572,natb3,2021.2.3,Win32,60.0276127,611e283064ad72ef8c6f48cd,611e07ecdcc96256ae8d5b80,611e6be04135754ebe6a41e0,
,,,,,,,0,134,134,311,1,X,1,2,7,3,,2500,2.5,611e283064ad72ef8c6f48cd,001,2021-08-19_15h34.26.572,natb3,2021.2.3,Win32,60.0276127,611e283064ad72ef8c6f48cd,611e07ecdcc96256ae8d5b80,611e6be04135754ebe6a41e0,
,,,,space,0.3741,,0,135,135,260,1,R, , , , ,space,2000,2,611e283064ad72ef8c6f48cd,001,2021-08-19_15h34.26.572,natb3,2021.2.3,Win32,60.0276127,611e283064ad72ef8c6f48cd,611e07ecdcc96256ae8d5b80,611e6be04135754ebe6a41e0,
,,,,space,0.3812,,0,136,136,258,1,E, , , , ,space,1500,1.5,611e283064ad72ef8c6f48cd,001,2021-08-19_15h34.26.572,natb3,2021.2.3,Win32,60.0276127,611e283064ad72ef8c6f48cd,611e07ecdcc96256ae8d5b80,611e6be04135754ebe6a41e0,
,,,,space,0.3569,,0,137,137,22,1,K, , , , ,space,2000,2,611e283064ad72ef8c6f48cd,001,2021-08-19_15h34.26.572,natb3,2021.2.3,Win32,60.0276127,611e283064ad72ef8c6f48cd,611e07ecdcc96256ae8d5b80,611e6be04135754ebe6a41e0,
,,,,space,0.3756,,0,138,138,110,1,I, , , , ,space,1500,1.5,611e283064ad72ef8c6f48cd,001,2021-08-19_15h34.26.572,natb3,2021.2.3,Win32,60.0276127,611e283064ad72ef8c6f48cd,611e07ecdcc96256ae8d5b80,611e6be04135754ebe6a41e0,
,,,,space,0.3482,,0,139,139,21,1,J, , , , ,space,1500,1.5,611e283064ad72ef8c6f48cd,001,2021-08-19_15h34.26.572,natb3,2021.2.3,Win32,60.0276127,611e283064ad72ef8c6f48cd,611e07ecdcc96256ae8d5b80,611e6be04135754ebe6a41e0,
,,,,space,0.3821,,0,140,140,306,1,D, , , , ,space,2000,2,611e283064ad72ef8c6f48cd,001,2021-08-19_15h34.26.572,natb3,2021.2.3,Win32,60.0276127,611e283064ad72ef8c6f48cd,611e07ecdcc96256ae8d5b80,611e6be04135754ebe6a41e0,
,,,,space,0.3843,,0,141,141,50,1,D, , , , ,space,1500,1.5,611e283064ad72ef8c6f48cd,001,2021-08-19_15h34.26.572,natb3,2021.2.3,Win32,60.0276127,611e283064ad72ef8c6f48cd,611e07ecdcc96256ae8d5b80,611e6be04135754ebe6a41e0,
,,,,space,0.3458,,0,142,142,251,1,B, , , , ,space,1500,1.5,611e283064ad72ef8c6f48cd,001,2021-08-19_15h34.26.572,natb3,2021.2.3,Win32,60.0276127,611e283064ad72ef8c6f48cd,611e07ecdcc96256ae8d5b80,611e6be04135754ebe6a41e0,
,,,,space,0.3871,,0,143,143,212,1,Q, , , , ,space,2500,2.5,611e283064ad72ef8c6f48cd,001,2021-08-19_15h34.26.572,natb3,2021.2.3,Win32,60.0276127,611e283064ad72ef8c6f48cd,611e07ecdcc96256ae8d5b80,611e6be04135754ebe6a41e0,
,,,,space,0.3581,,0,144,144,262,1,Y, , , , ,space,2500,2.5,611e283064ad72ef8c6f48cd,001,2021-08-19_15h34.26.572,natb3,2021.2.3,Win32,60.0276127,611e283064ad72ef8c6f48cd,611e07ecdcc96256ae8d5b80,611e6be04135754ebe6a41e0,
,,,,space,0.3586,,0,145,145,254,1,M, , , , ,space,1500,1.5,611e283064ad72ef8c6f48cd,001,2021-08-19_15h34.26.572,natb3,2021.2.3,Win32,60.0276127,611e283064ad72ef8c6f48cd,611e07ecdcc96256ae8d5b80,611e6be04135754ebe6a41e0,
,,,,,,,0,146,146,138,1,X,8,5, ,3,,2000,2,611e283064ad72ef8c6f48cd,001,2021-08-19_15h34.26.572,natb3,2021.2.3,Win32,60.0276127,611e283064ad72ef8c6f48cd,611e07ecdcc96256ae8d5b80,611e6be04135754ebe6a41e0,
,,,,,,,0,147,147,116,1,X, , , , ,,2000,2,611e283064ad72ef8c6f48cd,001,2021-08-19_15h34.26.572,natb3,2021.2.3,Win32,60.0276127,611e283064ad72ef8c6f48cd,611e07ecdcc96256ae8d5b80,611e6be04135754ebe6a41e0,
,,,,,,,0,148,148,23,1,X,1, ,5, ,,2000,2,611e283064ad72ef8c6f48cd,001,2021-08-19_15h34.26.572,natb3,2021.2.3,Win32,60.0276127,611e283064ad72ef8c6f48cd,611e07ecdcc96256ae8d5b80,611e6be04135754ebe6a41e0,
,,,,space,0.3913,,0,149,149,132,1,H, , , , ,space,2500,2.5,611e283064ad72ef8c6f48cd,001,2021-08-19_15h34.26.572,natb3,2021.2.3,Win32,60.0276127,611e283064ad72ef8c6f48cd,611e07ecdcc96256ae8d5b80,611e6be04135754ebe6a41e0,
,,,,space,0.341,,0,150,150,44,1,I, , , , ,space,2500,2.5,611e283064ad72ef8c6f48cd,001,2021-08-19_15h34.26.572,natb3,2021.2.3,Win32,60.0276127,611e283064ad72ef8c6f48cd,611e07ecdcc96256ae8d5b80,611e6be04135754ebe6a41e0,
,,,,space,0.3355,,0,151,151,195,1,X, , , , ,,1500,1.5,611e283064ad72ef8c6f48cd,001,2021-08-19_15h34.26.572,natb3,2021.2.3,Win32,60.0276127,611e283064ad72ef8c6f48cd,611e07ecdcc96256ae8d5b80,611e6be04135754ebe6a41e0,
,,,,space,0.4975,,0,152,152,199,1,J, , , , ,space,2500,2.5,611e283064ad72ef8c6f48cd,001,2021-08-19_15h34.26.572,natb3,2021.2.3,Win32,60.0276127,611e283064ad72ef8c6f48cd,611e07ecdcc96256ae8d5b80,611e6be04135754ebe6a41e0,
,,,,space,0.3842,,0,153,153,30,1,N, , , , ,space,2500,2.5,611e283064ad72ef8c6f48cd,001,2021-08-19_15h34.26.572,natb3,2021.2.3,Win32,60.0276127,611e283064ad72ef8c6f48cd,611e07ecdcc96256ae8d5b80,611e6be04135754ebe6a41e0,
,,,,space,0.4997,,0,154,154,45,1,O, , , , ,space,2000,2,611e283064ad72ef8c6f48cd,001,2021-08-19_15h34.26.572,natb3,2021.2.3,Win32,60.0276127,611e283064ad72ef8c6f48cd,611e07ecdcc96256ae8d5b80,611e6be04135754ebe6a41e0,
,,,,space,0.3893,,0,155,155,319,1,V, , , , ,space,2000,2,611e283064ad72ef8c6f48cd,001,2021-08-19_15h34.26.572,natb3,2021.2.3,Win32,60.0276127,611e283064ad72ef8c6f48cd,611e07ecdcc96256ae8d5b80,611e6be04135754ebe6a41e0,
,,,,,,,0,156,156,263,1,X,4, ,6, ,,1500,1.5,611e283064ad72ef8c6f48cd,001,2021-08-19_15h34.26.572,natb3,2021.2.3,Win32,60.0276127,611e283064ad72ef8c6f48cd,611e07ecdcc96256ae8d5b80,611e6be04135754ebe6a41e0,
,,,,,,,0,157,157,96,1,X, , , , ,,1500,1.5,611e283064ad72ef8c6f48cd,001,2021-08-19_15h34.26.572,natb3,2021.2.3,Win32,60.0276127,611e283064ad72ef8c6f48cd,611e07ecdcc96256ae8d5b80,611e6be04135754ebe6a41e0,
,,,,space,0.3867,,0,158,158,150,1,T, , , , ,space,2500,2.5,611e283064ad72ef8c6f48cd,001,2021-08-19_15h34.26.572,natb3,2021.2.3,Win32,60.0276127,611e283064ad72ef8c6f48cd,611e07ecdcc96256ae8d5b80,611e6be04135754ebe6a41e0,
,,,,space,0.5199,,0,159,159,87,1,H, , , , ,space,1500,1.5,611e283064ad72ef8c6f48cd,001,2021-08-19_15h34.26.572,natb3,2021.2.3,Win32,60.0276127,611e283064ad72ef8c6f48cd,611e07ecdcc96256ae8d5b80,611e6be04135754ebe6a41e0,
,,,,,,,0,160,160,335,1,P,,,,,space,1500,1.5,611e283064ad72ef8c6f48cd,001,2021-08-19_15h34.26.572,natb3,2021.2.3,Win32,60.0276127,611e283064ad72ef8c6f48cd,611e07ecdcc96256ae8d5b80,611e6be04135754ebe6a41e0,
,,,,space,0.5035,,0,161,161,115,1,R, , , , ,space,1500,1.5,611e283064ad72ef8c6f48cd,001,2021-08-19_15h34.26.572,natb3,2021.2.3,Win32,60.0276127,611e283064ad72ef8c6f48cd,611e07ecdcc96256ae8d5b80,611e6be04135754ebe6a41e0,
,,,,,,,0,162,162,54,1,X, , , , ,,2000,2,611e283064ad72ef8c6f48cd,001,2021-08-19_15h34.26.572,natb3,2021.2.3,Win32,60.0276127,611e283064ad72ef8c6f48cd,611e07ecdcc96256ae8d5b80,611e6be04135754ebe6a41e0,
,,,,space,0.4821,,0,163,163,164,1,H, , , , ,space,2500,2.5,611e283064ad72ef8c6f48cd,001,2021-08-19_15h34.26.572,natb3,2021.2.3,Win32,60.0276127,611e283064ad72ef8c6f48cd,611e07ecdcc96256ae8d5b80,611e6be04135754ebe6a41e0,
,,,,space,0.3658,,0,164,164,32,1,M, , , , ,space,1500,1.5,611e283064ad72ef8c6f48cd,001,2021-08-19_15h34.26.572,natb3,2021.2.3,Win32,60.0276127,611e283064ad72ef8c6f48cd,611e07ecdcc96256ae8d5b80,611e6be04135754ebe6a41e0,
,,,,,,,0,165,165,153,1,X,4,7, ,6,,2000,2,611e283064ad72ef8c6f48cd,001,2021-08-19_15h34.26.572,natb3,2021.2.3,Win32,60.0276127,611e283064ad72ef8c6f48cd,611e07ecdcc96256ae8d5b80,611e6be04135754ebe6a41e0,
,,,,space,0.3773,,0,166,166,298,1,I, , , , ,space,2000,2,611e283064ad72ef8c6f48cd,001,2021-08-19_15h34.26.572,natb3,2021.2.3,Win32,60.0276127,611e283064ad72ef8c6f48cd,611e07ecdcc96256ae8d5b80,611e6be04135754ebe6a41e0,
,,,,space,0.3708,space,0,167,167,101,1,Q, , , , ,space,2500,2.5,611e283064ad72ef8c6f48cd,001,2021-08-19_15h34.26.572,natb3,2021.2.3,Win32,60.0276127,611e283064ad72ef8c6f48cd,611e07ecdcc96256ae8d5b80,611e6be04135754ebe6a41e0,14.8713
,,,,,,,0,168,168,27,1,X,5, ,1,3,,1500,1.5,611e283064ad72ef8c6f48cd,001,2021-08-19_15h34.26.572,natb3,2021.2.3,Win32,60.0276127,611e283064ad72ef8c6f48cd,611e07ecdcc96256ae8d5b80,611e6be04135754ebe6a41e0,
,,,,space,0.3722,,0,169,169,249,1,C, , , , ,space,2000,2,611e283064ad72ef8c6f48cd,001,2021-08-19_15h34.26.572,natb3,2021.2.3,Win32,60.0276127,611e283064ad72ef8c6f48cd,611e07ecdcc96256ae8d5b80,611e6be04135754ebe6a41e0,
,,,,,,,0,170,170,158,1,X, , , , ,,1500,1.5,611e283064ad72ef8c6f48cd,001,2021-08-19_15h34.26.572,natb3,2021.2.3,Win32,60.0276127,611e283064ad72ef8c6f48cd,611e07ecdcc96256ae8d5b80,611e6be04135754ebe6a41e0,
,,,,space,0.3822,,0,171,171,244,1,J, , , , ,space,1500,1.5,611e283064ad72ef8c6f48cd,001,2021-08-19_15h34.26.572,natb3,2021.2.3,Win32,60.0276127,611e283064ad72ef8c6f48cd,611e07ecdcc96256ae8d5b80,611e6be04135754ebe6a41e0,
,,,,space,0.3684,,0,172,172,237,1,S, , , , ,space,1500,1.5,611e283064ad72ef8c6f48cd,001,2021-08-19_15h34.26.572,natb3,2021.2.3,Win32,60.0276127,611e283064ad72ef8c6f48cd,611e07ecdcc96256ae8d5b80,611e6be04135754ebe6a41e0,
,,,,space,0.3539,,0,173,173,5,1,T, , , , ,space,2000,2,611e283064ad72ef8c6f48cd,001,2021-08-19_15h34.26.572,natb3,2021.2.3,Win32,60.0276127,611e283064ad72ef8c6f48cd,611e07ecdcc96256ae8d5b80,611e6be04135754ebe6a41e0,
,,,,,,,0,174,174,31,1,X, , , , ,,1500,1.5,611e283064ad72ef8c6f48cd,001,2021-08-19_15h34.26.572,natb3,2021.2.3,Win32,60.0276127,611e283064ad72ef8c6f48cd,611e07ecdcc96256ae8d5b80,611e6be04135754ebe6a41e0,
,,,,space,0.5691,,0,175,175,231,1,I, , , , ,space,2500,2.5,611e283064ad72ef8c6f48cd,001,2021-08-19_15h34.26.572,natb3,2021.2.3,Win32,60.0276127,611e283064ad72ef8c6f48cd,611e07ecdcc96256ae8d5b80,611e6be04135754ebe6a41e0,
,,,,space,0.3995,,0,176,176,37,1,E, , , , ,space,2500,2.5,611e283064ad72ef8c6f48cd,001,2021-08-19_15h34.26.572,natb3,2021.2.3,Win32,60.0276127,611e283064ad72ef8c6f48cd,611e07ecdcc96256ae8d5b80,611e6be04135754ebe6a41e0,
,,,,,,,0,177,177,211,1,X, , , , ,,2500,2.5,611e283064ad72ef8c6f48cd,001,2021-08-19_15h34.26.572,natb3,2021.2.3,Win32,60.0276127,611e283064ad72ef8c6f48cd,611e07ecdcc96256ae8d5b80,611e6be04135754ebe6a41e0,
,,,,space,0.3404,,0,178,178,202,1,L, , , , ,space,2500,2.5,611e283064ad72ef8c6f48cd,001,2021-08-19_15h34.26.572,natb3,2021.2.3,Win32,60.0276127,611e283064ad72ef8c6f48cd,611e07ecdcc96256ae8d5b80,611e6be04135754ebe6a41e0,
,,,,,,,0,179,179,145,1,X, , , , ,,2000,2,611e283064ad72ef8c6f48cd,001,2021-08-19_15h34.26.572,natb3,2021.2.3,Win32,60.0276127,611e283064ad72ef8c6f48cd,611e07ecdcc96256ae8d5b80,611e6be04135754ebe6a41e0,
,,,,space,0.3735,,0,180,180,13,1,A, , , , ,space,2000,2,611e283064ad72ef8c6f48cd,001,2021-08-19_15h34.26.572,natb3,2021.2.3,Win32,60.0276127,611e283064ad72ef8c6f48cd,611e07ecdcc96256ae8d5b80,611e6be04135754ebe6a41e0,
,,,,,,,0,181,181,66,1,X, ,4,7, ,,2000,2,611e283064ad72ef8c6f48cd,001,2021-08-19_15h34.26.572,natb3,2021.2.3,Win32,60.0276127,611e283064ad72ef8c6f48cd,611e07ecdcc96256ae8d5b80,611e6be04135754ebe6a41e0,
,,,,space,0.4272,,0,182,182,41,1,Y, , , , ,space,2500,2.5,611e283064ad72ef8c6f48cd,001,2021-08-19_15h34.26.572,natb3,2021.2.3,Win32,60.0276127,611e283064ad72ef8c6f48cd,611e07ecdcc96256ae8d5b80,611e6be04135754ebe6a41e0,
,,,,space,0.3791,,0,183,183,128,1,D, , , , ,space,2500,2.5,611e283064ad72ef8c6f48cd,001,2021-08-19_15h34.26.572,natb3,2021.2.3,Win32,60.0276127,611e283064ad72ef8c6f48cd,611e07ecdcc96256ae8d5b80,611e6be04135754ebe6a41e0,
,,,,space,0.3816,,0,184,184,293,1,R, , , , ,space,2500,2.5,611e283064ad72ef8c6f48cd,001,2021-08-19_15h34.26.572,natb3,2021.2.3,Win32,60.0276127,611e283064ad72ef8c6f48cd,611e07ecdcc96256ae8d5b80,611e6be04135754ebe6a41e0,
,,,,space,0.3304,,0,185,185,17,1,F, , , , ,space,2500,2.5,611e283064ad72ef8c6f48cd,001,2021-08-19_15h34.26.572,natb3,2021.2.3,Win32,60.0276127,611e283064ad72ef8c6f48cd,611e07ecdcc96256ae8d5b80,611e6be04135754ebe6a41e0,
,,,,space,0.3692,,0,186,186,123,1,O, , , , ,space,1500,1.5,611e283064ad72ef8c6f48cd,001,2021-08-19_15h34.26.572,natb3,2021.2.3,Win32,60.0276127,611e283064ad72ef8c6f48cd,611e07ecdcc96256ae8d5b80,611e6be04135754ebe6a41e0,
,,,,space,0.3428,,0,187,187,240,1,F, , , , ,space,2500,2.5,611e283064ad72ef8c6f48cd,001,2021-08-19_15h34.26.572,natb3,2021.2.3,Win32,60.0276127,611e283064ad72ef8c6f48cd,611e07ecdcc96256ae8d5b80,611e6be04135754ebe6a41e0,
,,,,space,0.481,,0,188,188,63,1,B, , , , ,space,2000,2,611e283064ad72ef8c6f48cd,001,2021-08-19_15h34.26.572,natb3,2021.2.3,Win32,60.0276127,611e283064ad72ef8c6f48cd,611e07ecdcc96256ae8d5b80,611e6be04135754ebe6a41e0,
,,,,space,0.3903,,0,189,189,303,1,A, , , , ,space,2000,2,611e283064ad72ef8c6f48cd,001,2021-08-19_15h34.26.572,natb3,2021.2.3,Win32,60.0276127,611e283064ad72ef8c6f48cd,611e07ecdcc96256ae8d5b80,611e6be04135754ebe6a41e0,
,,,,,,,0,190,190,93,1,X,5, ,7, ,,2500,2.5,611e283064ad72ef8c6f48cd,001,2021-08-19_15h34.26.572,natb3,2021.2.3,Win32,60.0276127,611e283064ad72ef8c6f48cd,611e07ecdcc96256ae8d5b80,611e6be04135754ebe6a41e0,
,,,,,,,0,191,191,18,1,X, ,2,5,8,,2500,2.5,611e283064ad72ef8c6f48cd,001,2021-08-19_15h34.26.572,natb3,2021.2.3,Win32,60.0276127,611e283064ad72ef8c6f48cd,611e07ecdcc96256ae8d5b80,611e6be04135754ebe6a41e0,
,,,,space,0.6407,,0,192,192,92,1,Z, , , , ,space,1500,1.5,611e283064ad72ef8c6f48cd,001,2021-08-19_15h34.26.572,natb3,2021.2.3,Win32,60.0276127,611e283064ad72ef8c6f48cd,611e07ecdcc96256ae8d5b80,611e6be04135754ebe6a41e0,
,,,,space,0.4159,,0,193,193,221,1,I, , , , ,space,2500,2.5,611e283064ad72ef8c6f48cd,001,2021-08-19_15h34.26.572,natb3,2021.2.3,Win32,60.0276127,611e283064ad72ef8c6f48cd,611e07ecdcc96256ae8d5b80,611e6be04135754ebe6a41e0,
,,,,space,0.3569,,0,194,194,253,1,N, , , , ,space,2500,2.5,611e283064ad72ef8c6f48cd,001,2021-08-19_15h34.26.572,natb3,2021.2.3,Win32,60.0276127,611e283064ad72ef8c6f48cd,611e07ecdcc96256ae8d5b80,611e6be04135754ebe6a41e0,
,,,,space,0.3644,,0,195,195,53,1,G, , , , ,space,2500,2.5,611e283064ad72ef8c6f48cd,001,2021-08-19_15h34.26.572,natb3,2021.2.3,Win32,60.0276127,611e283064ad72ef8c6f48cd,611e07ecdcc96256ae8d5b80,611e6be04135754ebe6a41e0,
,,,,space,0.3708,,0,196,196,19,1,G, , , , ,space,1500,1.5,611e283064ad72ef8c6f48cd,001,2021-08-19_15h34.26.572,natb3,2021.2.3,Win32,60.0276127,611e283064ad72ef8c6f48cd,611e07ecdcc96256ae8d5b80,611e6be04135754ebe6a41e0,
,,,,space,0.3372,,0,197,197,208,1,B, , , , ,space,1500,1.5,611e283064ad72ef8c6f48cd,001,2021-08-19_15h34.26.572,natb3,2021.2.3,Win32,60.0276127,611e283064ad72ef8c6f48cd,611e07ecdcc96256ae8d5b80,611e6be04135754ebe6a41e0,
,,,,,,,0,198,198,118,1,X, , , , ,,2000,2,611e283064ad72ef8c6f48cd,001,2021-08-19_15h34.26.572,natb3,2021.2.3,Win32,60.0276127,611e283064ad72ef8c6f48cd,611e07ecdcc96256ae8d5b80,611e6be04135754ebe6a41e0,
,,,,space,0.3484,,0,199,199,26,1,C, , , , ,space,2000,2,611e283064ad72ef8c6f48cd,001,2021-08-19_15h34.26.572,natb3,2021.2.3,Win32,60.0276127,611e283064ad72ef8c6f48cd,611e07ecdcc96256ae8d5b80,611e6be04135754ebe6a41e0,
,,,,space,0.3667,,0,200,200,117,1,T, , , , ,space,2500,2.5,611e283064ad72ef8c6f48cd,001,2021-08-19_15h34.26.572,natb3,2021.2.3,Win32,60.0276127,611e283064ad72ef8c6f48cd,611e07ecdcc96256ae8d5b80,611e6be04135754ebe6a41e0,
,,,,space,0.3835,,0,201,201,198,1,H, , , , ,space,2500,2.5,611e283064ad72ef8c6f48cd,001,2021-08-19_15h34.26.572,natb3,2021.2.3,Win32,60.0276127,611e283064ad72ef8c6f48cd,611e07ecdcc96256ae8d5b80,611e6be04135754ebe6a41e0,
,,,,space,0.4685,,0,202,202,232,1,O, , , , ,space,2500,2.5,611e283064ad72ef8c6f48cd,001,2021-08-19_15h34.26.572,natb3,2021.2.3,Win32,60.0276127,611e283064ad72ef8c6f48cd,611e07ecdcc96256ae8d5b80,611e6be04135754ebe6a41e0,
,,,,space,0.3871,,0,203,203,220,1,U, , , , ,space,2500,2.5,611e283064ad72ef8c6f48cd,001,2021-08-19_15h34.26.572,natb3,2021.2.3,Win32,60.0276127,611e283064ad72ef8c6f48cd,611e07ecdcc96256ae8d5b80,611e6be04135754ebe6a41e0,
,,,,space,0.5201,,0,204,204,320,1,B, , , , ,space,1500,1.5,611e283064ad72ef8c6f48cd,001,2021-08-19_15h34.26.572,natb3,2021.2.3,Win32,60.0276127,611e283064ad72ef8c6f48cd,611e07ecdcc96256ae8d5b80,611e6be04135754ebe6a41e0,
,,,,,,,0,205,205,4,1,X, , , , ,,2000,2,611e283064ad72ef8c6f48cd,001,2021-08-19_15h34.26.572,natb3,2021.2.3,Win32,60.0276127,611e283064ad72ef8c6f48cd,611e07ecdcc96256ae8d5b80,611e6be04135754ebe6a41e0,
,,,,space,0.3912,,0,206,206,124,1,P, , , , ,space,2000,2,611e283064ad72ef8c6f48cd,001,2021-08-19_15h34.26.572,natb3,2021.2.3,Win32,60.0276127,611e283064ad72ef8c6f48cd,611e07ecdcc96256ae8d5b80,611e6be04135754ebe6a41e0,
,,,,space,0.4971,,0,207,207,57,1,K, , , , ,space,2500,2.5,611e283064ad72ef8c6f48cd,001,2021-08-19_15h34.26.572,natb3,2021.2.3,Win32,60.0276127,611e283064ad72ef8c6f48cd,611e07ecdcc96256ae8d5b80,611e6be04135754ebe6a41e0,
,,,,space,0.3843,,0,208,208,189,1,O, , , , ,space,1500,1.5,611e283064ad72ef8c6f48cd,001,2021-08-19_15h34.26.572,natb3,2021.2.3,Win32,60.0276127,611e283064ad72ef8c6f48cd,611e07ecdcc96256ae8d5b80,611e6be04135754ebe6a41e0,
,,,,,,,0,209,209,218,1,X,1,3, ,8,,1500,1.5,611e283064ad72ef8c6f48cd,001,2021-08-19_15h34.26.572,natb3,2021.2.3,Win32,60.0276127,611e283064ad72ef8c6f48cd,611e07ecdcc96256ae8d5b80,611e6be04135754ebe6a41e0,
,,,,space,0.5105,,0,210,210,105,1,R, , , , ,space,2500,2.5,611e283064ad72ef8c6f48cd,001,2021-08-19_15h34.26.572,natb3,2021.2.3,Win32,60.0276127,611e283064ad72ef8c6f48cd,611e07ecdcc96256ae8d5b80,611e6be04135754ebe6a41e0,
,,,,,,,0,211,211,243,1,X, , , , ,,2500,2.5,611e283064ad72ef8c6f48cd,001,2021-08-19_15h34.26.572,natb3,2021.2.3,Win32,60.0276127,611e283064ad72ef8c6f48cd,611e07ecdcc96256ae8d5b80,611e6be04135754ebe6a41e0,
,,,,,,,0,212,212,329,1,X,3,4, ,2,,2500,2.5,611e283064ad72ef8c6f48cd,001,2021-08-19_15h34.26.572,natb3,2021.2.3,Win32,60.0276127,611e283064ad72ef8c6f48cd,611e07ecdcc96256ae8d5b80,611e6be04135754ebe6a41e0,
,,,,space,0.3693,,0,213,213,183,1,R, , , , ,space,1500,1.5,611e283064ad72ef8c6f48cd,001,2021-08-19_15h34.26.572,natb3,2021.2.3,Win32,60.0276127,611e283064ad72ef8c6f48cd,611e07ecdcc96256ae8d5b80,611e6be04135754ebe6a41e0,
,,,,space,0.4029,,0,214,214,223,1,Q, , , , ,space,2000,2,611e283064ad72ef8c6f48cd,001,2021-08-19_15h34.26.572,natb3,2021.2.3,Win32,60.0276127,611e283064ad72ef8c6f48cd,611e07ecdcc96256ae8d5b80,611e6be04135754ebe6a41e0,
,,,,space,0.348,,0,215,215,321,1,N, , , , ,space,2000,2,611e283064ad72ef8c6f48cd,001,2021-08-19_15h34.26.572,natb3,2021.2.3,Win32,60.0276127,611e283064ad72ef8c6f48cd,611e07ecdcc96256ae8d5b80,611e6be04135754ebe6a41e0,
,,,,space,0.343,,0,216,216,40,1,T, , , , ,space,1500,1.5,611e283064ad72ef8c6f48cd,001,2021-08-19_15h34.26.572,natb3,2021.2.3,Win32,60.0276127,611e283064ad72ef8c6f48cd,611e07ecdcc96256ae8d5b80,611e6be04135754ebe6a41e0,
,,,,,,,0,217,217,191,1,X,1, ,3,4,,2500,2.5,611e283064ad72ef8c6f48cd,001,2021-08-19_15h34.26.572,natb3,2021.2.3,Win32,60.0276127,611e283064ad72ef8c6f48cd,611e07ecdcc96256ae8d5b80,611e6be04135754ebe6a41e0,
,,,,space,0.4215,,0,218,218,83,1,D, , , , ,space,2000,2,611e283064ad72ef8c6f48cd,001,2021-08-19_15h34.26.572,natb3,2021.2.3,Win32,60.0276127,611e283064ad72ef8c6f48cd,611e07ecdcc96256ae8d5b80,611e6be04135754ebe6a41e0,
,,,,,,,0,219,219,33,1,X, , , , ,,1500,1.5,611e283064ad72ef8c6f48cd,001,2021-08-19_15h34.26.572,natb3,2021.2.3,Win32,60.0276127,611e283064ad72ef8c6f48cd,611e07ecdcc96256ae8d5b80,611e6be04135754ebe6a41e0,
,,,,space,0.4016,,0,220,220,308,1,G, , , , ,space,1500,1.5,611e283064ad72ef8c6f48cd,001,2021-08-19_15h34.26.572,natb3,2021.2.3,Win32,60.0276127,611e283064ad72ef8c6f48cd,611e07ecdcc96256ae8d5b80,611e6be04135754ebe6a41e0,
,,,,space,0.4798,,0,221,221,59,1,Z, , , , ,space,2000,2,611e283064ad72ef8c6f48cd,001,2021-08-19_15h34.26.572,natb3,2021.2.3,Win32,60.0276127,611e283064ad72ef8c6f48cd,611e07ecdcc96256ae8d5b80,611e6be04135754ebe6a41e0,
,,,,space,0.4007,,0,222,222,173,1,V, , , , ,space,1500,1.5,611e283064ad72ef8c6f48cd,001,2021-08-19_15h34.26.572,natb3,2021.2.3,Win32,60.0276127,611e283064ad72ef8c6f48cd,611e07ecdcc96256ae8d5b80,611e6be04135754ebe6a41e0,
,,,,space,0.5047,,0,223,223,149,1,R, , , , ,space,2000,2,611e283064ad72ef8c6f48cd,001,2021-08-19_15h34.26.572,natb3,2021.2.3,Win32,60.0276127,611e283064ad72ef8c6f48cd,611e07ecdcc96256ae8d5b80,611e6be04135754ebe6a41e0,
,,,,space,0.3711,,0,224,224,94,1,C, , , , ,space,2000,2,611e283064ad72ef8c6f48cd,001,2021-08-19_15h34.26.572,natb3,2021.2.3,Win32,60.0276127,611e283064ad72ef8c6f48cd,611e07ecdcc96256ae8d5b80,611e6be04135754ebe6a41e0,
,,,,space,0.4768,,0,225,225,9,1,I, , , , ,space,1500,1.5,611e283064ad72ef8c6f48cd,001,2021-08-19_15h34.26.572,natb3,2021.2.3,Win32,60.0276127,611e283064ad72ef8c6f48cd,611e07ecdcc96256ae8d5b80,611e6be04135754ebe6a41e0,
,,,,,,,0,226,226,141,1,X,1, ,4,6,,1500,1.5,611e283064ad72ef8c6f48cd,001,2021-08-19_15h34.26.572,natb3,2021.2.3,Win32,60.0276127,611e283064ad72ef8c6f48cd,611e07ecdcc96256ae8d5b80,611e6be04135754ebe6a41e0,
,,,,,,,0,227,227,255,1,X, , , , ,,1500,1.5,611e283064ad72ef8c6f48cd,001,2021-08-19_15h34.26.572,natb3,2021.2.3,Win32,60.0276127,611e283064ad72ef8c6f48cd,611e07ecdcc96256ae8d5b80,611e6be04135754ebe6a41e0,
,,,,,,,0,228,228,282,1,X, , , , ,,2500,2.5,611e283064ad72ef8c6f48cd,001,2021-08-19_15h34.26.572,natb3,2021.2.3,Win32,60.0276127,611e283064ad72ef8c6f48cd,611e07ecdcc96256ae8d5b80,611e6be04135754ebe6a41e0,
,,,,space,0.3845,,0,229,229,91,1,L, , , , ,space,2000,2,611e283064ad72ef8c6f48cd,001,2021-08-19_15h34.26.572,natb3,2021.2.3,Win32,60.0276127,611e283064ad72ef8c6f48cd,611e07ecdcc96256ae8d5b80,611e6be04135754ebe6a41e0,
,,,,space,0.3465,,0,230,230,234,1,P, , , , ,space,2000,2,611e283064ad72ef8c6f48cd,001,2021-08-19_15h34.26.572,natb3,2021.2.3,Win32,60.0276127,611e283064ad72ef8c6f48cd,611e07ecdcc96256ae8d5b80,611e6be04135754ebe6a41e0,
,,,,space,0.3333,,0,231,231,0,1,Q, , , , ,space,1500,1.5,611e283064ad72ef8c6f48cd,001,2021-08-19_15h34.26.572,natb3,2021.2.3,Win32,60.0276127,611e283064ad72ef8c6f48cd,611e07ecdcc96256ae8d5b80,611e6be04135754ebe6a41e0,
,,,,space,0.3979,,0,232,232,55,1,H, , , , ,space,2500,2.5,611e283064ad72ef8c6f48cd,001,2021-08-19_15h34.26.572,natb3,2021.2.3,Win32,60.0276127,611e283064ad72ef8c6f48cd,611e07ecdcc96256ae8d5b80,611e6be04135754ebe6a41e0,
,,,,,,,0,233,233,182,1,X, , , , ,,1500,1.5,611e283064ad72ef8c6f48cd,001,2021-08-19_15h34.26.572,natb3,2021.2.3,Win32,60.0276127,611e283064ad72ef8c6f48cd,611e07ecdcc96256ae8d5b80,611e6be04135754ebe6a41e0,
,,,,space,0.3702,,0,234,234,193,1,S, , , , ,space,2500,2.5,611e283064ad72ef8c6f48cd,001,2021-08-19_15h34.26.572,natb3,2021.2.3,Win32,60.0276127,611e283064ad72ef8c6f48cd,611e07ecdcc96256ae8d5b80,611e6be04135754ebe6a41e0,
,,,,space,0.3645,,0,235,235,222,1,O, , , , ,space,2000,2,611e283064ad72ef8c6f48cd,001,2021-08-19_15h34.26.572,natb3,2021.2.3,Win32,60.0276127,611e283064ad72ef8c6f48cd,611e07ecdcc96256ae8d5b80,611e6be04135754ebe6a41e0,
,,,,space,0.3669,,0,236,236,24,1,L, , , , ,space,2500,2.5,611e283064ad72ef8c6f48cd,001,2021-08-19_15h34.26.572,natb3,2021.2.3,Win32,60.0276127,611e283064ad72ef8c6f48cd,611e07ecdcc96256ae8d5b80,611e6be04135754ebe6a41e0,
,,,,space,0.3565,,0,237,237,332,1,U, , , , ,space,2000,2,611e283064ad72ef8c6f48cd,001,2021-08-19_15h34.26.572,natb3,2021.2.3,Win32,60.0276127,611e283064ad72ef8c6f48cd,611e07ecdcc96256ae8d5b80,611e6be04135754ebe6a41e0,
,,,,space,0.3643,,0,238,238,142,1,N, , , , ,space,2500,2.5,611e283064ad72ef8c6f48cd,001,2021-08-19_15h34.26.572,natb3,2021.2.3,Win32,60.0276127,611e283064ad72ef8c6f48cd,611e07ecdcc96256ae8d5b80,611e6be04135754ebe6a41e0,
,,,,,,,0,239,239,318,1,X, , , , ,,1500,1.5,611e283064ad72ef8c6f48cd,001,2021-08-19_15h34.26.572,natb3,2021.2.3,Win32,60.0276127,611e283064ad72ef8c6f48cd,611e07ecdcc96256ae8d5b80,611e6be04135754ebe6a41e0,
,,,,,,,0,240,240,89,1,X,3, , , ,,2000,2,611e283064ad72ef8c6f48cd,001,2021-08-19_15h34.26.572,natb3,2021.2.3,Win32,60.0276127,611e283064ad72ef8c6f48cd,611e07ecdcc96256ae8d5b80,611e6be04135754ebe6a41e0,
,,,,,,,0,241,241,325,1,X, , , , ,,2500,2.5,611e283064ad72ef8c6f48cd,001,2021-08-19_15h34.26.572,natb3,2021.2.3,Win32,60.0276127,611e283064ad72ef8c6f48cd,611e07ecdcc96256ae8d5b80,611e6be04135754ebe6a41e0,
,,,,space,0.5041,,0,242,242,219,1,Y, , , , ,space,2000,2,611e283064ad72ef8c6f48cd,001,2021-08-19_15h34.26.572,natb3,2021.2.3,Win32,60.0276127,611e283064ad72ef8c6f48cd,611e07ecdcc96256ae8d5b80,611e6be04135754ebe6a41e0,
,,,,space,0.3918,,0,243,243,161,1,F, , , , ,space,1500,1.5,611e283064ad72ef8c6f48cd,001,2021-08-19_15h34.26.572,natb3,2021.2.3,Win32,60.0276127,611e283064ad72ef8c6f48cd,611e07ecdcc96256ae8d5b80,611e6be04135754ebe6a41e0,
,,,,,,,0,244,244,268,1,X,6, ,3, ,,2500,2.5,611e283064ad72ef8c6f48cd,001,2021-08-19_15h34.26.572,natb3,2021.2.3,Win32,60.0276127,611e283064ad72ef8c6f48cd,611e07ecdcc96256ae8d5b80,611e6be04135754ebe6a41e0,
,,,,space,0.5024,,0,245,245,230,1,U, , , , ,space,1500,1.5,611e283064ad72ef8c6f48cd,001,2021-08-19_15h34.26.572,natb3,2021.2.3,Win32,60.0276127,611e283064ad72ef8c6f48cd,611e07ecdcc96256ae8d5b80,611e6be04135754ebe6a41e0,
,,,,,,,0,246,246,187,1,X, ,3,7,4,,1500,1.5,611e283064ad72ef8c6f48cd,001,2021-08-19_15h34.26.572,natb3,2021.2.3,Win32,60.0276127,611e283064ad72ef8c6f48cd,611e07ecdcc96256ae8d5b80,611e6be04135754ebe6a41e0,
,,,,space,0.5332,,0,247,247,330,1,T, , , , ,space,2500,2.5,611e283064ad72ef8c6f48cd,001,2021-08-19_15h34.26.572,natb3,2021.2.3,Win32,60.0276127,611e283064ad72ef8c6f48cd,611e07ecdcc96256ae8d5b80,611e6be04135754ebe6a41e0,
,,,,space,0.4864,,0,248,248,201,1,K, , , , ,space,1500,1.5,611e283064ad72ef8c6f48cd,001,2021-08-19_15h34.26.572,natb3,2021.2.3,Win32,60.0276127,611e283064ad72ef8c6f48cd,611e07ecdcc96256ae8d5b80,611e6be04135754ebe6a41e0,
,,,,,,,0,249,249,122,1,X,1, , ,8,,1500,1.5,611e283064ad72ef8c6f48cd,001,2021-08-19_15h34.26.572,natb3,2021.2.3,Win32,60.0276127,611e283064ad72ef8c6f48cd,611e07ecdcc96256ae8d5b80,611e6be04135754ebe6a41e0,
,,,,,,,0,250,250,287,1,X, ,2, ,9,,2000,2,611e283064ad72ef8c6f48cd,001,2021-08-19_15h34.26.572,natb3,2021.2.3,Win32,60.0276127,611e283064ad72ef8c6f48cd,611e07ecdcc96256ae8d5b80,611e6be04135754ebe6a41e0,
,,,,space,0.4042,,0,251,251,25,1,Z, , , , ,space,2500,2.5,611e283064ad72ef8c6f48cd,001,2021-08-19_15h34.26.572,natb3,2021.2.3,Win32,60.0276127,611e283064ad72ef8c6f48cd,611e07ecdcc96256ae8d5b80,611e6be04135754ebe6a41e0,
,,,,space,0.3523,,0,252,252,261,1,T, , , , ,space,2000,2,611e283064ad72ef8c6f48cd,001,2021-08-19_15h34.26.572,natb3,2021.2.3,Win32,60.0276127,611e283064ad72ef8c6f48cd,611e07ecdcc96256ae8d5b80,611e6be04135754ebe6a41e0,
,,,,,,,0,253,253,148,1,X, , , , ,,2000,2,611e283064ad72ef8c6f48cd,001,2021-08-19_15h34.26.572,natb3,2021.2.3,Win32,60.0276127,611e283064ad72ef8c6f48cd,611e07ecdcc96256ae8d5b80,611e6be04135754ebe6a41e0,
,,,,,,,0,254,254,313,1,X, , , , ,,2500,2.5,611e283064ad72ef8c6f48cd,001,2021-08-19_15h34.26.572,natb3,2021.2.3,Win32,60.0276127,611e283064ad72ef8c6f48cd,611e07ecdcc96256ae8d5b80,611e6be04135754ebe6a41e0,
,,,,,,,0,255,255,133,1,X, ,4, ,6,,2500,2.5,611e283064ad72ef8c6f48cd,001,2021-08-19_15h34.26.572,natb3,2021.2.3,Win32,60.0276127,611e283064ad72ef8c6f48cd,611e07ecdcc96256ae8d5b80,611e6be04135754ebe6a41e0,
,,,,space,0.391,,0,256,256,38,1,R, , , , ,space,2500,2.5,611e283064ad72ef8c6f48cd,001,2021-08-19_15h34.26.572,natb3,2021.2.3,Win32,60.0276127,611e283064ad72ef8c6f48cd,611e07ecdcc96256ae8d5b80,611e6be04135754ebe6a41e0,
,,,,,,,0,257,257,277,1,X,8,5, ,2,,2000,2,611e283064ad72ef8c6f48cd,001,2021-08-19_15h34.26.572,natb3,2021.2.3,Win32,60.0276127,611e283064ad72ef8c6f48cd,611e07ecdcc96256ae8d5b80,611e6be04135754ebe6a41e0,
,,,,space,0.3894,,0,258,258,215,1,E, , , , ,space,2500,2.5,611e283064ad72ef8c6f48cd,001,2021-08-19_15h34.26.572,natb3,2021.2.3,Win32,60.0276127,611e283064ad72ef8c6f48cd,611e07ecdcc96256ae8d5b80,611e6be04135754ebe6a41e0,
,,,,,,,0,259,259,299,1,X, , , , ,,2500,2.5,611e283064ad72ef8c6f48cd,001,2021-08-19_15h34.26.572,natb3,2021.2.3,Win32,60.0276127,611e283064ad72ef8c6f48cd,611e07ecdcc96256ae8d5b80,611e6be04135754ebe6a41e0,
,,,,space,0.3872,,0,260,260,172,1,C, , , , ,space,1500,1.5,611e283064ad72ef8c6f48cd,001,2021-08-19_15h34.26.572,natb3,2021.2.3,Win32,60.0276127,611e283064ad72ef8c6f48cd,611e07ecdcc96256ae8d5b80,611e6be04135754ebe6a41e0,
,,,,space,0.3887,,0,261,261,178,1,Q, , , , ,space,1500,1.5,611e283064ad72ef8c6f48cd,001,2021-08-19_15h34.26.572,natb3,2021.2.3,Win32,60.0276127,611e283064ad72ef8c6f48cd,611e07ecdcc96256ae8d5b80,611e6be04135754ebe6a41e0,
,,,,,,,0,262,262,166,1,X, , , , ,,2000,2,611e283064ad72ef8c6f48cd,001,2021-08-19_15h34.26.572,natb3,2021.2.3,Win32,60.0276127,611e283064ad72ef8c6f48cd,611e07ecdcc96256ae8d5b80,611e6be04135754ebe6a41e0,
,,,,space,0.3836,,0,263,263,281,1,Z, , , , ,space,1500,1.5,611e283064ad72ef8c6f48cd,001,2021-08-19_15h34.26.572,natb3,2021.2.3,Win32,60.0276127,611e283064ad72ef8c6f48cd,611e07ecdcc96256ae8d5b80,611e6be04135754ebe6a41e0,
,,,,,,,0,264,264,51,1,X,7,5,8, ,,1500,1.5,611e283064ad72ef8c6f48cd,001,2021-08-19_15h34.26.572,natb3,2021.2.3,Win32,60.0276127,611e283064ad72ef8c6f48cd,611e07ecdcc96256ae8d5b80,611e6be04135754ebe6a41e0,
,,,,space,0.5295,,0,265,265,312,1,K, , , , ,space,2000,2,611e283064ad72ef8c6f48cd,001,2021-08-19_15h34.26.572,natb3,2021.2.3,Win32,60.0276127,611e283064ad72ef8c6f48cd,611e07ecdcc96256ae8d5b80,611e6be04135754ebe6a41e0,
,,,,space,0.3589,,0,266,266,247,1,Z, , , , ,space,1500,1.5,611e283064ad72ef8c6f48cd,001,2021-08-19_15h34.26.572,natb3,2021.2.3,Win32,60.0276127,611e283064ad72ef8c6f48cd,611e07ecdcc96256ae8d5b80,611e6be04135754ebe6a41e0,
,,,,,,,0,267,267,74,1,X, ,4,3,2,,1500,1.5,611e283064ad72ef8c6f48cd,001,2021-08-19_15h34.26.572,natb3,2021.2.3,Win32,60.0276127,611e283064ad72ef8c6f48cd,611e07ecdcc96256ae8d5b80,611e6be04135754ebe6a41e0,
,,,,space,0.5112,,0,268,268,331,1,Y, , , , ,space,2500,2.5,611e283064ad72ef8c6f48cd,001,2021-08-19_15h34.26.572,natb3,2021.2.3,Win32,60.0276127,611e283064ad72ef8c6f48cd,611e07ecdcc96256ae8d5b80,611e6be04135754ebe6a41e0,
,,,,,,,0,269,269,273,1,X, , , , ,,2000,2,611e283064ad72ef8c6f48cd,001,2021-08-19_15h34.26.572,natb3,2021.2.3,Win32,60.0276127,611e283064ad72ef8c6f48cd,611e07ecdcc96256ae8d5b80,611e6be04135754ebe6a41e0,
,,,,space,0.3721,,0,270,270,121,1,I, , , , ,space,2000,2,611e283064ad72ef8c6f48cd,001,2021-08-19_15h34.26.572,natb3,2021.2.3,Win32,60.0276127,611e283064ad72ef8c6f48cd,611e07ecdcc96256ae8d5b80,611e6be04135754ebe6a41e0,
,,,,space,0.365,,0,271,271,130,1,F, , , , ,space,2000,2,611e283064ad72ef8c6f48cd,001,2021-08-19_15h34.26.572,natb3,2021.2.3,Win32,60.0276127,611e283064ad72ef8c6f48cd,611e07ecdcc96256ae8d5b80,611e6be04135754ebe6a41e0,
,,,,,,,0,272,272,305,1,X, , , , ,,1500,1.5,611e283064ad72ef8c6f48cd,001,2021-08-19_15h34.26.572,natb3,2021.2.3,Win32,60.0276127,611e283064ad72ef8c6f48cd,611e07ecdcc96256ae8d5b80,611e6be04135754ebe6a41e0,
,,,,space,0.397,,0,273,273,20,1,H, , , , ,space,1500,1.5,611e283064ad72ef8c6f48cd,001,2021-08-19_15h34.26.572,natb3,2021.2.3,Win32,60.0276127,611e283064ad72ef8c6f48cd,611e07ecdcc96256ae8d5b80,611e6be04135754ebe6a41e0,
,,,,space,0.3363,,0,274,274,294,1,T, , , , ,space,2000,2,611e283064ad72ef8c6f48cd,001,2021-08-19_15h34.26.572,natb3,2021.2.3,Win32,60.0276127,611e283064ad72ef8c6f48cd,611e07ecdcc96256ae8d5b80,611e6be04135754ebe6a41e0,
,,,,,,,0,275,275,239,1,X, , , , ,,2000,2,611e283064ad72ef8c6f48cd,001,2021-08-19_15h34.26.572,natb3,2021.2.3,Win32,60.0276127,611e283064ad72ef8c6f48cd,611e07ecdcc96256ae8d5b80,611e6be04135754ebe6a41e0,
,,,,space,0.4322,,0,276,276,210,1,M, , , , ,space,1500,1.5,611e283064ad72ef8c6f48cd,001,2021-08-19_15h34.26.572,natb3,2021.2.3,Win32,60.0276127,611e283064ad72ef8c6f48cd,611e07ecdcc96256ae8d5b80,611e6be04135754ebe6a41e0,
,,,,space,0.4534,,0,277,277,67,1,Q, , , , ,space,2000,2,611e283064ad72ef8c6f48cd,001,2021-08-19_15h34.26.572,natb3,2021.2.3,Win32,60.0276127,611e283064ad72ef8c6f48cd,611e07ecdcc96256ae8d5b80,611e6be04135754ebe6a41e0,
,,,,space,0.4839,,0,278,278,288,1,M, , , , ,space,1500,1.5,611e283064ad72ef8c6f48cd,001,2021-08-19_15h34.26.572,natb3,2021.2.3,Win32,60.0276127,611e283064ad72ef8c6f48cd,611e07ecdcc96256ae8d5b80,611e6be04135754ebe6a41e0,
,,,,space,0.4479,,0,279,279,156,1,P, , , , ,space,1500,1.5,611e283064ad72ef8c6f48cd,001,2021-08-19_15h34.26.572,natb3,2021.2.3,Win32,60.0276127,611e283064ad72ef8c6f48cd,611e07ecdcc96256ae8d5b80,611e6be04135754ebe6a41e0,
,,,,space,0.3335,,0,280,280,68,1,W, , , , ,space,2500,2.5,611e283064ad72ef8c6f48cd,001,2021-08-19_15h34.26.572,natb3,2021.2.3,Win32,60.0276127,611e283064ad72ef8c6f48cd,611e07ecdcc96256ae8d5b80,611e6be04135754ebe6a41e0,
,,,,space,0.3729,,0,281,281,119,1,Y, , , , ,space,2500,2.5,611e283064ad72ef8c6f48cd,001,2021-08-19_15h34.26.572,natb3,2021.2.3,Win32,60.0276127,611e283064ad72ef8c6f48cd,611e07ecdcc96256ae8d5b80,611e6be04135754ebe6a41e0,
,,,,space,0.4316,,0,282,282,296,1,Y, , , , ,space,2500,2.5,611e283064ad72ef8c6f48cd,001,2021-08-19_15h34.26.572,natb3,2021.2.3,Win32,60.0276127,611e283064ad72ef8c6f48cd,611e07ecdcc96256ae8d5b80,611e6be04135754ebe6a41e0,
,,,,,,,0,283,283,291,1,X, , , , ,,2000,2,611e283064ad72ef8c6f48cd,001,2021-08-19_15h34.26.572,natb3,2021.2.3,Win32,60.0276127,611e283064ad72ef8c6f48cd,611e07ecdcc96256ae8d5b80,611e6be04135754ebe6a41e0,
,,,,,,,0,284,284,102,1,X, ,6, , ,,1500,1.5,611e283064ad72ef8c6f48cd,001,2021-08-19_15h34.26.572,natb3,2021.2.3,Win32,60.0276127,611e283064ad72ef8c6f48cd,611e07ecdcc96256ae8d5b80,611e6be04135754ebe6a41e0,
,,,,space,0.3929,,0,285,285,257,1,W, , , , ,space,2000,2,611e283064ad72ef8c6f48cd,001,2021-08-19_15h34.26.572,natb3,2021.2.3,Win32,60.0276127,611e283064ad72ef8c6f48cd,611e07ecdcc96256ae8d5b80,611e6be04135754ebe6a41e0,
,,,,space,0.3421,,0,286,286,197,1,G, , , , ,space,2500,2.5,611e283064ad72ef8c6f48cd,001,2021-08-19_15h34.26.572,natb3,2021.2.3,Win32,60.0276127,611e283064ad72ef8c6f48cd,611e07ecdcc96256ae8d5b80,611e6be04135754ebe6a41e0,
,,,,,,,0,287,287,175,1,X,7, ,4,2,,1500,1.5,611e283064ad72ef8c6f48cd,001,2021-08-19_15h34.26.572,natb3,2021.2.3,Win32,60.0276127,611e283064ad72ef8c6f48cd,611e07ecdcc96256ae8d5b80,611e6be04135754ebe6a41e0,
,,,,space,0.346,,0,288,288,140,1,B, , , , ,space,2500,2.5,611e283064ad72ef8c6f48cd,001,2021-08-19_15h34.26.572,natb3,2021.2.3,Win32,60.0276127,611e283064ad72ef8c6f48cd,611e07ecdcc96256ae8d5b80,611e6be04135754ebe6a41e0,
,,,,space,0.3677,,0,289,289,205,1,C, , , , ,space,2000,2,611e283064ad72ef8c6f48cd,001,2021-08-19_15h34.26.572,natb3,2021.2.3,Win32,60.0276127,611e283064ad72ef8c6f48cd,611e07ecdcc96256ae8d5b80,611e6be04135754ebe6a41e0,
,,,,space,0.3976,,0,290,290,280,1,L, , , , ,space,1500,1.5,611e283064ad72ef8c6f48cd,001,2021-08-19_15h34.26.572,natb3,2021.2.3,Win32,60.0276127,611e283064ad72ef8c6f48cd,611e07ecdcc96256ae8d5b80,611e6be04135754ebe6a41e0,
,,,,,,,0,291,291,78,1,X, , , , ,,2000,2,611e283064ad72ef8c6f48cd,001,2021-08-19_15h34.26.572,natb3,2021.2.3,Win32,60.0276127,611e283064ad72ef8c6f48cd,611e07ecdcc96256ae8d5b80,611e6be04135754ebe6a41e0,
,,,,space,0.3457,,0,292,292,108,1,Y, , , , ,space,2500,2.5,611e283064ad72ef8c6f48cd,001,2021-08-19_15h34.26.572,natb3,2021.2.3,Win32,60.0276127,611e283064ad72ef8c6f48cd,611e07ecdcc96256ae8d5b80,611e6be04135754ebe6a41e0,
,,,,space,0.4478,,0,293,293,314,1,L, , , , ,space,1500,1.5,611e283064ad72ef8c6f48cd,001,2021-08-19_15h34.26.572,natb3,2021.2.3,Win32,60.0276127,611e283064ad72ef8c6f48cd,611e07ecdcc96256ae8d5b80,611e6be04135754ebe6a41e0,
,,,,space,0.6309,,0,294,294,170,1,Z, , , , ,space,2000,2,611e283064ad72ef8c6f48cd,001,2021-08-19_15h34.26.572,natb3,2021.2.3,Win32,60.0276127,611e283064ad72ef8c6f48cd,611e07ecdcc96256ae8d5b80,611e6be04135754ebe6a41e0,
,,,,space,0.3646,,0,295,295,323,1,M, , , , ,space,2500,2.5,611e283064ad72ef8c6f48cd,001,2021-08-19_15h34.26.572,natb3,2021.2.3,Win32,60.0276127,611e283064ad72ef8c6f48cd,611e07ecdcc96256ae8d5b80,611e6be04135754ebe6a41e0,
,,,,space,0.3814,,0,296,296,147,1,E, , , , ,space,2000,2,611e283064ad72ef8c6f48cd,001,2021-08-19_15h34.26.572,natb3,2021.2.3,Win32,60.0276127,611e283064ad72ef8c6f48cd,611e07ecdcc96256ae8d5b80,611e6be04135754ebe6a41e0,
,,,,space,0.4173,,0,297,297,36,1,W, , , , ,space,2000,2,611e283064ad72ef8c6f48cd,001,2021-08-19_15h34.26.572,natb3,2021.2.3,Win32,60.0276127,611e283064ad72ef8c6f48cd,611e07ecdcc96256ae8d5b80,611e6be04135754ebe6a41e0,
,,,,,,,0,298,298,171,1,X, , , , ,,1500,1.5,611e283064ad72ef8c6f48cd,001,2021-08-19_15h34.26.572,natb3,2021.2.3,Win32,60.0276127,611e283064ad72ef8c6f48cd,611e07ecdcc96256ae8d5b80,611e6be04135754ebe6a41e0,
,,,,space,0.3378,,0,299,299,58,1,L, , , , ,space,2000,2,611e283064ad72ef8c6f48cd,001,2021-08-19_15h34.26.572,natb3,2021.2.3,Win32,60.0276127,611e283064ad72ef8c6f48cd,611e07ecdcc96256ae8d5b80,611e6be04135754ebe6a41e0,
,,,,space,0.3696,,0,300,300,275,1,G, , , , ,space,1500,1.5,611e283064ad72ef8c6f48cd,001,2021-08-19_15h34.26.572,natb3,2021.2.3,Win32,60.0276127,611e283064ad72ef8c6f48cd,611e07ecdcc96256ae8d5b80,611e6be04135754ebe6a41e0,
,,,,space,0.3788,,0,301,301,99,1,N, , , , ,space,2500,2.5,611e283064ad72ef8c6f48cd,001,2021-08-19_15h34.26.572,natb3,2021.2.3,Win32,60.0276127,611e283064ad72ef8c6f48cd,611e07ecdcc96256ae8d5b80,611e6be04135754ebe6a41e0,
,,,,space,0.5143,,0,302,302,301,1,P, , , , ,space,1500,1.5,611e283064ad72ef8c6f48cd,001,2021-08-19_15h34.26.572,natb3,2021.2.3,Win32,60.0276127,611e283064ad72ef8c6f48cd,611e07ecdcc96256ae8d5b80,611e6be04135754ebe6a41e0,
,,,,space,0.3308,,0,303,303,297,1,U, , , , ,space,2000,2,611e283064ad72ef8c6f48cd,001,2021-08-19_15h34.26.572,natb3,2021.2.3,Win32,60.0276127,611e283064ad72ef8c6f48cd,611e07ecdcc96256ae8d5b80,611e6be04135754ebe6a41e0,
,,,,space,0.5168,,0,304,304,226,1,R, , , , ,space,2000,2,611e283064ad72ef8c6f48cd,001,2021-08-19_15h34.26.572,natb3,2021.2.3,Win32,60.0276127,611e283064ad72ef8c6f48cd,611e07ecdcc96256ae8d5b80,611e6be04135754ebe6a41e0,
,,,,space,0.3221,,0,305,305,324,1,Q, , , , ,space,2000,2,611e283064ad72ef8c6f48cd,001,2021-08-19_15h34.26.572,natb3,2021.2.3,Win32,60.0276127,611e283064ad72ef8c6f48cd,611e07ecdcc96256ae8d5b80,611e6be04135754ebe6a41e0,
,,,,space,0.324,,0,306,306,11,1,P, , , , ,space,2500,2.5,611e283064ad72ef8c6f48cd,001,2021-08-19_15h34.26.572,natb3,2021.2.3,Win32,60.0276127,611e283064ad72ef8c6f48cd,611e07ecdcc96256ae8d5b80,611e6be04135754ebe6a41e0,
,,,,space,0.2858,,0,307,307,174,1,B, , , , ,space,2500,2.5,611e283064ad72ef8c6f48cd,001,2021-08-19_15h34.26.572,natb3,2021.2.3,Win32,60.0276127,611e283064ad72ef8c6f48cd,611e07ecdcc96256ae8d5b80,611e6be04135754ebe6a41e0,
,,,,space,0.2843,,0,308,308,307,1,F, , , , ,space,2500,2.5,611e283064ad72ef8c6f48cd,001,2021-08-19_15h34.26.572,natb3,2021.2.3,Win32,60.0276127,611e283064ad72ef8c6f48cd,611e07ecdcc96256ae8d5b80,611e6be04135754ebe6a41e0,
,,,,space,0.472,,0,309,309,289,1,Q, , , , ,space,2000,2,611e283064ad72ef8c6f48cd,001,2021-08-19_15h34.26.572,natb3,2021.2.3,Win32,60.0276127,611e283064ad72ef8c6f48cd,611e07ecdcc96256ae8d5b80,611e6be04135754ebe6a41e0,
,,,,space,0.3346,,0,310,310,227,1,T, , , , ,space,1500,1.5,611e283064ad72ef8c6f48cd,001,2021-08-19_15h34.26.572,natb3,2021.2.3,Win32,60.0276127,611e283064ad72ef8c6f48cd,611e07ecdcc96256ae8d5b80,611e6be04135754ebe6a41e0,
,,,,space,0.3624,,0,311,311,209,1,N, , , , ,space,2000,2,611e283064ad72ef8c6f48cd,001,2021-08-19_15h34.26.572,natb3,2021.2.3,Win32,60.0276127,611e283064ad72ef8c6f48cd,611e07ecdcc96256ae8d5b80,611e6be04135754ebe6a41e0,
,,,,space,0.3684,,0,312,312,304,1,S, , , , ,space,2000,2,611e283064ad72ef8c6f48cd,001,2021-08-19_15h34.26.572,natb3,2021.2.3,Win32,60.0276127,611e283064ad72ef8c6f48cd,611e07ecdcc96256ae8d5b80,611e6be04135754ebe6a41e0,
,,,,,,,0,313,313,203,1,X, , , , ,,2500,2.5,611e283064ad72ef8c6f48cd,001,2021-08-19_15h34.26.572,natb3,2021.2.3,Win32,60.0276127,611e283064ad72ef8c6f48cd,611e07ecdcc96256ae8d5b80,611e6be04135754ebe6a41e0,
,,,,,,,0,314,314,84,1,X, , , , ,,2000,2,611e283064ad72ef8c6f48cd,001,2021-08-19_15h34.26.572,natb3,2021.2.3,Win32,60.0276127,611e283064ad72ef8c6f48cd,611e07ecdcc96256ae8d5b80,611e6be04135754ebe6a41e0,
,,,,,,,0,315,315,236,1,X,3, ,4,7,,2500,2.5,611e283064ad72ef8c6f48cd,001,2021-08-19_15h34.26.572,natb3,2021.2.3,Win32,60.0276127,611e283064ad72ef8c6f48cd,611e07ecdcc96256ae8d5b80,611e6be04135754ebe6a41e0,
,,,,space,0.3677,,0,316,316,79,1,P, , , , ,space,2000,2,611e283064ad72ef8c6f48cd,001,2021-08-19_15h34.26.572,natb3,2021.2.3,Win32,60.0276127,611e283064ad72ef8c6f48cd,611e07ecdcc96256ae8d5b80,611e6be04135754ebe6a41e0,
,,,,space,0.3507,,0,317,317,75,1,U, , , , ,space,1500,1.5,611e283064ad72ef8c6f48cd,001,2021-08-19_15h34.26.572,natb3,2021.2.3,Win32,60.0276127,611e283064ad72ef8c6f48cd,611e07ecdcc96256ae8d5b80,611e6be04135754ebe6a41e0,
,,,,space,0.362,,0,318,318,48,1,A, , , , ,space,2500,2.5,611e283064ad72ef8c6f48cd,001,2021-08-19_15h34.26.572,natb3,2021.2.3,Win32,60.0276127,611e283064ad72ef8c6f48cd,611e07ecdcc96256ae8d5b80,611e6be04135754ebe6a41e0,
,,,,space,0.3616,,0,319,319,112,1,Q, , , , ,space,2500,2.5,611e283064ad72ef8c6f48cd,001,2021-08-19_15h34.26.572,natb3,2021.2.3,Win32,60.0276127,611e283064ad72ef8c6f48cd,611e07ecdcc96256ae8d5b80,611e6be04135754ebe6a41e0,
,,,,space,0.4013,,0,320,320,114,1,E, , , , ,space,2000,2,611e283064ad72ef8c6f48cd,001,2021-08-19_15h34.26.572,natb3,2021.2.3,Win32,60.0276127,611e283064ad72ef8c6f48cd,611e07ecdcc96256ae8d5b80,611e6be04135754ebe6a41e0,
,,,,space,0.3273,,0,321,321,46,1,X, , , , ,,2000,2,611e283064ad72ef8c6f48cd,001,2021-08-19_15h34.26.572,natb3,2021.2.3,Win32,60.0276127,611e283064ad72ef8c6f48cd,611e07ecdcc96256ae8d5b80,611e6be04135754ebe6a41e0,
,,,,space,0.5148,,0,322,322,316,1,Z, , , , ,space,1500,1.5,611e283064ad72ef8c6f48cd,001,2021-08-19_15h34.26.572,natb3,2021.2.3,Win32,60.0276127,611e283064ad72ef8c6f48cd,611e07ecdcc96256ae8d5b80,611e6be04135754ebe6a41e0,
,,,,space,0.3868,,0,323,323,1,1,W, , , , ,space,2000,2,611e283064ad72ef8c6f48cd,001,2021-08-19_15h34.26.572,natb3,2021.2.3,Win32,60.0276127,611e283064ad72ef8c6f48cd,611e07ecdcc96256ae8d5b80,611e6be04135754ebe6a41e0,
,,,,space,0.4316,,0,324,324,265,1,I, , , , ,space,2000,2,611e283064ad72ef8c6f48cd,001,2021-08-19_15h34.26.572,natb3,2021.2.3,Win32,60.0276127,611e283064ad72ef8c6f48cd,611e07ecdcc96256ae8d5b80,611e6be04135754ebe6a41e0,
,,,,space,0.3851,,0,325,325,28,1,V, , , , ,space,1500,1.5,611e283064ad72ef8c6f48cd,001,2021-08-19_15h34.26.572,natb3,2021.2.3,Win32,60.0276127,611e283064ad72ef8c6f48cd,611e07ecdcc96256ae8d5b80,611e6be04135754ebe6a41e0,
,,,,,,,0,326,326,39,1,X,6,2, , ,,1500,1.5,611e283064ad72ef8c6f48cd,001,2021-08-19_15h34.26.572,natb3,2021.2.3,Win32,60.0276127,611e283064ad72ef8c6f48cd,611e07ecdcc96256ae8d5b80,611e6be04135754ebe6a41e0,
,,,,space,0.3618,,0,327,327,163,1,G, , , , ,space,2500,2.5,611e283064ad72ef8c6f48cd,001,2021-08-19_15h34.26.572,natb3,2021.2.3,Win32,60.0276127,611e283064ad72ef8c6f48cd,611e07ecdcc96256ae8d5b80,611e6be04135754ebe6a41e0,
,,,,space,0.3348,,0,328,328,73,1,Y, , , , ,space,2000,2,611e283064ad72ef8c6f48cd,001,2021-08-19_15h34.26.572,natb3,2021.2.3,Win32,60.0276127,611e283064ad72ef8c6f48cd,611e07ecdcc96256ae8d5b80,611e6be04135754ebe6a41e0,
,,,,space,0.3624,,0,329,329,284,1,V, , , , ,space,2500,2.5,611e283064ad72ef8c6f48cd,001,2021-08-19_15h34.26.572,natb3,2021.2.3,Win32,60.0276127,611e283064ad72ef8c6f48cd,611e07ecdcc96256ae8d5b80,611e6be04135754ebe6a41e0,
,,,,space,0.3522,,0,330,330,29,1,B, , , , ,space,1500,1.5,611e283064ad72ef8c6f48cd,001,2021-08-19_15h34.26.572,natb3,2021.2.3,Win32,60.0276127,611e283064ad72ef8c6f48cd,611e07ecdcc96256ae8d5b80,611e6be04135754ebe6a41e0,
,,,,,,,0,331,331,82,1,X,4,6,1,7,,2000,2,611e283064ad72ef8c6f48cd,001,2021-08-19_15h34.26.572,natb3,2021.2.3,Win32,60.0276127,611e283064ad72ef8c6f48cd,611e07ecdcc96256ae8d5b80,611e6be04135754ebe6a41e0,
,,,,space,0.5543,,0,332,332,139,1,V, , , , ,space,2000,2,611e283064ad72ef8c6f48cd,001,2021-08-19_15h34.26.572,natb3,2021.2.3,Win32,60.0276127,611e283064ad72ef8c6f48cd,611e07ecdcc96256ae8d5b80,611e6be04135754ebe6a41e0,
,,,,space,0.3498,,0,333,333,106,1,T, , , , ,space,1500,1.5,611e283064ad72ef8c6f48cd,001,2021-08-19_15h34.26.572,natb3,2021.2.3,Win32,60.0276127,611e283064ad72ef8c6f48cd,611e07ecdcc96256ae8d5b80,611e6be04135754ebe6a41e0,
,,,,space,0.398,,0,334,334,283,1,C, , , , ,space,1500,1.5,611e283064ad72ef8c6f48cd,001,2021-08-19_15h34.26.572,natb3,2021.2.3,Win32,60.0276127,611e283064ad72ef8c6f48cd,611e07ecdcc96256ae8d5b80,611e6be04135754ebe6a41e0,
,,,,space,0.356,,0,335,335,290,1,W, , , , ,space,1500,1.5,611e283064ad72ef8c6f48cd,001,2021-08-19_15h34.26.572,natb3,2021.2.3,Win32,60.0276127,611e283064ad72ef8c6f48cd,611e07ecdcc96256ae8d5b80,611e6be04135754ebe6a41e0,
