key_resp_2.keys,key_resp_2.rt,key_resp_3.keys,key_resp_3.rt,key_resp.keys,key_resp.rt,key_resp_4.keys,trials.thisRepN,trials.thisTrialN,trials.thisN,trials.thisIndex,trials.ran,stimulus,distractor1,distractor2,distractor3,distractor4,CorrAns,isi_duration,isi_dur_in_seconds,participant,session,date,expName,psychopyVersion,OS,frameRate,PROLIFIC_PID,STUDY_ID,SESSION_ID,key_resp_4.rt
return,2.2749,space,55.1488,space,0.7198,,0,0,0,14,1,S, , , , ,space,2500,2.5,Ben,001,2021-08-19_15h58.39.769,natb3,2021.2.3,Win32,60.04202942,611ceae6cc4047f40f350c53,611e07ecdcc96256ae8d5b80,611e71229f97de3eba06d7f4,
,,,,space,0.3862,,0,1,1,186,1,U, , , , ,space,2500,2.5,Ben,001,2021-08-19_15h58.39.769,natb3,2021.2.3,Win32,60.04202942,611ceae6cc4047f40f350c53,611e07ecdcc96256ae8d5b80,611e71229f97de3eba06d7f4,
,,,,space,0.4484,,0,2,2,192,1,A, , , , ,space,2000,2,Ben,001,2021-08-19_15h58.39.769,natb3,2021.2.3,Win32,60.04202942,611ceae6cc4047f40f350c53,611e07ecdcc96256ae8d5b80,611e71229f97de3eba06d7f4,
,,,,,,,0,3,3,302,1,X, , , , ,,2000,2,Ben,001,2021-08-19_15h58.39.769,natb3,2021.2.3,Win32,60.04202942,611ceae6cc4047f40f350c53,611e07ecdcc96256ae8d5b80,611e71229f97de3eba06d7f4,
,,,,space,0.4515,,0,4,4,144,1,Q, , , , ,space,2500,2.5,Ben,001,2021-08-19_15h58.39.769,natb3,2021.2.3,Win32,60.04202942,611ceae6cc4047f40f350c53,611e07ecdcc96256ae8d5b80,611e71229f97de3eba06d7f4,
,,,,space,0.4041,,0,5,5,303,1,A, , , , ,space,2000,2,Ben,001,2021-08-19_15h58.39.769,natb3,2021.2.3,Win32,60.04202942,611ceae6cc4047f40f350c53,611e07ecdcc96256ae8d5b80,611e71229f97de3eba06d7f4,
,,,,space,0.439,,0,6,6,326,1,W, , , , ,space,2000,2,Ben,001,2021-08-19_15h58.39.769,natb3,2021.2.3,Win32,60.04202942,611ceae6cc4047f40f350c53,611e07ecdcc96256ae8d5b80,611e71229f97de3eba06d7f4,
,,,,space,0.4327,,0,7,7,327,1,E, , , , ,space,1500,1.5,Ben,001,2021-08-19_15h58.39.769,natb3,2021.2.3,Win32,60.04202942,611ceae6cc4047f40f350c53,611e07ecdcc96256ae8d5b80,611e71229f97de3eba06d7f4,
,,,,space,0.4011,,0,8,8,26,1,C, , , , ,space,2000,2,Ben,001,2021-08-19_15h58.39.769,natb3,2021.2.3,Win32,60.04202942,611ceae6cc4047f40f350c53,611e07ecdcc96256ae8d5b80,611e71229f97de3eba06d7f4,
,,,,space,0.5112,,0,9,9,185,1,Y, , , , ,space,2500,2.5,Ben,001,2021-08-19_15h58.39.769,natb3,2021.2.3,Win32,60.04202942,611ceae6cc4047f40f350c53,611e07ecdcc96256ae8d5b80,611e71229f97de3eba06d7f4,
,,,,space,0.4184,,0,10,10,297,1,U, , , , ,space,2000,2,Ben,001,2021-08-19_15h58.39.769,natb3,2021.2.3,Win32,60.04202942,611ceae6cc4047f40f350c53,611e07ecdcc96256ae8d5b80,611e71229f97de3eba06d7f4,
,,,,space,0.4694,,0,11,11,202,1,L, , , , ,space,2500,2.5,Ben,001,2021-08-19_15h58.39.769,natb3,2021.2.3,Win32,60.04202942,611ceae6cc4047f40f350c53,611e07ecdcc96256ae8d5b80,611e71229f97de3eba06d7f4,
,,,,,,,0,12,12,207,1,X,9, ,2, ,,2500,2.5,Ben,001,2021-08-19_15h58.39.769,natb3,2021.2.3,Win32,60.04202942,611ceae6cc4047f40f350c53,611e07ecdcc96256ae8d5b80,611e71229f97de3eba06d7f4,
,,,,space,0.5046,,0,13,13,57,1,K, , , , ,space,2500,2.5,Ben,001,2021-08-19_15h58.39.769,natb3,2021.2.3,Win32,60.04202942,611ceae6cc4047f40f350c53,611e07ecdcc96256ae8d5b80,611e71229f97de3eba06d7f4,
,,,,,,,0,14,14,148,1,X, , , , ,,2000,2,Ben,001,2021-08-19_15h58.39.769,natb3,2021.2.3,Win32,60.04202942,611ceae6cc4047f40f350c53,611e07ecdcc96256ae8d5b80,611e71229f97de3eba06d7f4,
,,,,space,0.4259,,0,15,15,90,1,K, , , , ,space,2000,2,Ben,001,2021-08-19_15h58.39.769,natb3,2021.2.3,Win32,60.04202942,611ceae6cc4047f40f350c53,611e07ecdcc96256ae8d5b80,611e71229f97de3eba06d7f4,
,,,,space,0.4059,,0,16,16,150,1,T, , , , ,space,2500,2.5,Ben,001,2021-08-19_15h58.39.769,natb3,2021.2.3,Win32,60.04202942,611ceae6cc4047f40f350c53,611e07ecdcc96256ae8d5b80,611e71229f97de3eba06d7f4,
,,,,space,0.4023,,0,17,17,152,1,U, , , , ,space,2000,2,Ben,001,2021-08-19_15h58.39.769,natb3,2021.2.3,Win32,60.04202942,611ceae6cc4047f40f350c53,611e07ecdcc96256ae8d5b80,611e71229f97de3eba06d7f4,
,,,,space,0.3851,,0,18,18,294,1,T, , , , ,space,2000,2,Ben,001,2021-08-19_15h58.39.769,natb3,2021.2.3,Win32,60.04202942,611ceae6cc4047f40f350c53,611e07ecdcc96256ae8d5b80,611e71229f97de3eba06d7f4,
,,,,space,0.4412,,0,19,19,215,1,E, , , , ,space,2500,2.5,Ben,001,2021-08-19_15h58.39.769,natb3,2021.2.3,Win32,60.04202942,611ceae6cc4047f40f350c53,611e07ecdcc96256ae8d5b80,611e71229f97de3eba06d7f4,
,,,,space,0.4408,,0,20,20,296,1,Y, , , , ,space,2500,2.5,Ben,001,2021-08-19_15h58.39.769,natb3,2021.2.3,Win32,60.04202942,611ceae6cc4047f40f350c53,611e07ecdcc96256ae8d5b80,611e71229f97de3eba06d7f4,
,,,,space,0.3663,,0,21,21,17,1,F, , , , ,space,2500,2.5,Ben,001,2021-08-19_15h58.39.769,natb3,2021.2.3,Win32,60.04202942,611ceae6cc4047f40f350c53,611e07ecdcc96256ae8d5b80,611e71229f97de3eba06d7f4,
,,,,,,,0,22,22,89,1,X,3, , , ,,2000,2,Ben,001,2021-08-19_15h58.39.769,natb3,2021.2.3,Win32,60.04202942,611ceae6cc4047f40f350c53,611e07ecdcc96256ae8d5b80,611e71229f97de3eba06d7f4,
,,,,space,0.3706,,0,23,23,203,1,X, , , , ,,2500,2.5,Ben,001,2021-08-19_15h58.39.769,natb3,2021.2.3,Win32,60.04202942,611ceae6cc4047f40f350c53,611e07ecdcc96256ae8d5b80,611e71229f97de3eba06d7f4,
,,,,space,0.4283,,0,24,24,260,1,R, , , , ,space,2000,2,Ben,001,2021-08-19_15h58.39.769,natb3,2021.2.3,Win32,60.04202942,611ceae6cc4047f40f350c53,611e07ecdcc96256ae8d5b80,611e71229f97de3eba06d7f4,
,,,,space,0.528,,0,25,25,135,1,K, , , , ,space,1500,1.5,Ben,001,2021-08-19_15h58.39.769,natb3,2021.2.3,Win32,60.04202942,611ceae6cc4047f40f350c53,611e07ecdcc96256ae8d5b80,611e71229f97de3eba06d7f4,
,,,,space,0.4524,,0,26,26,223,1,Q, , , , ,space,2000,2,Ben,001,2021-08-19_15h58.39.769,natb3,2021.2.3,Win32,60.04202942,611ceae6cc4047f40f350c53,611e07ecdcc96256ae8d5b80,611e71229f97de3eba06d7f4,
,,,,space,0.402,,0,27,27,272,1,D, , , , ,space,2000,2,Ben,001,2021-08-19_15h58.39.769,natb3,2021.2.3,Win32,60.04202942,611ceae6cc4047f40f350c53,611e07ecdcc96256ae8d5b80,611e71229f97de3eba06d7f4,
,,,,,,,0,28,28,39,1,X,6,2, , ,,1500,1.5,Ben,001,2021-08-19_15h58.39.769,natb3,2021.2.3,Win32,60.04202942,611ceae6cc4047f40f350c53,611e07ecdcc96256ae8d5b80,611e71229f97de3eba06d7f4,
,,,,space,0.4182,,0,29,29,131,1,G, , , , ,space,1500,1.5,Ben,001,2021-08-19_15h58.39.769,natb3,2021.2.3,Win32,60.04202942,611ceae6cc4047f40f350c53,611e07ecdcc96256ae8d5b80,611e71229f97de3eba06d7f4,
,,,,,,,0,30,30,129,1,X,2,3,5, ,,1500,1.5,Ben,001,2021-08-19_15h58.39.769,natb3,2021.2.3,Win32,60.04202942,611ceae6cc4047f40f350c53,611e07ecdcc96256ae8d5b80,611e71229f97de3eba06d7f4,
,,,,space,0.5676,,0,31,31,104,1,E, , , , ,space,2000,2,Ben,001,2021-08-19_15h58.39.769,natb3,2021.2.3,Win32,60.04202942,611ceae6cc4047f40f350c53,611e07ecdcc96256ae8d5b80,611e71229f97de3eba06d7f4,
,,,,space,0.4936,,0,32,32,109,1,U, , , , ,space,1500,1.5,Ben,001,2021-08-19_15h58.39.769,natb3,2021.2.3,Win32,60.04202942,611ceae6cc4047f40f350c53,611e07ecdcc96256ae8d5b80,611e71229f97de3eba06d7f4,
,,,,space,0.526,,0,33,33,249,1,C, , , , ,space,2000,2,Ben,001,2021-08-19_15h58.39.769,natb3,2021.2.3,Win32,60.04202942,611ceae6cc4047f40f350c53,611e07ecdcc96256ae8d5b80,611e71229f97de3eba06d7f4,
,,,,,,,0,34,34,66,1,X, ,4,7, ,,2000,2,Ben,001,2021-08-19_15h58.39.769,natb3,2021.2.3,Win32,60.04202942,611ceae6cc4047f40f350c53,611e07ecdcc96256ae8d5b80,611e71229f97de3eba06d7f4,
,,,,space,0.4392,,0,35,35,72,1,T, , , , ,space,1500,1.5,Ben,001,2021-08-19_15h58.39.769,natb3,2021.2.3,Win32,60.04202942,611ceae6cc4047f40f350c53,611e07ecdcc96256ae8d5b80,611e71229f97de3eba06d7f4,
,,,,space,0.4176,,0,36,36,328,1,R, , , , ,space,1500,1.5,Ben,001,2021-08-19_15h58.39.769,natb3,2021.2.3,Win32,60.04202942,611ceae6cc4047f40f350c53,611e07ecdcc96256ae8d5b80,611e71229f97de3eba06d7f4,
,,,,space,0.4929,,0,37,37,323,1,M, , , , ,space,2500,2.5,Ben,001,2021-08-19_15h58.39.769,natb3,2021.2.3,Win32,60.04202942,611ceae6cc4047f40f350c53,611e07ecdcc96256ae8d5b80,611e71229f97de3eba06d7f4,
,,,,space,0.5422,,0,38,38,127,1,S, , , , ,space,2500,2.5,Ben,001,2021-08-19_15h58.39.769,natb3,2021.2.3,Win32,60.04202942,611ceae6cc4047f40f350c53,611e07ecdcc96256ae8d5b80,611e71229f97de3eba06d7f4,
,,,,,,,0,39,39,74,1,X, ,4,3,2,,1500,1.5,Ben,001,2021-08-19_15h58.39.769,natb3,2021.2.3,Win32,60.04202942,611ceae6cc4047f40f350c53,611e07ecdcc96256ae8d5b80,611e71229f97de3eba06d7f4,
,,,,,,,0,40,40,93,1,X,5, ,7, ,,2500,2.5,Ben,001,2021-08-19_15h58.39.769,natb3,2021.2.3,Win32,60.04202942,611ceae6cc4047f40f350c53,611e07ecdcc96256ae8d5b80,611e71229f97de3eba06d7f4,
,,,,space,0.403,,0,41,41,225,1,E, , , , ,space,2000,2,Ben,001,2021-08-19_15h58.39.769,natb3,2021.2.3,Win32,60.04202942,611ceae6cc4047f40f350c53,611e07ecdcc96256ae8d5b80,611e71229f97de3eba06d7f4,
,,,,space,0.5117,,0,42,42,28,1,V, , , , ,space,1500,1.5,Ben,001,2021-08-19_15h58.39.769,natb3,2021.2.3,Win32,60.04202942,611ceae6cc4047f40f350c53,611e07ecdcc96256ae8d5b80,611e71229f97de3eba06d7f4,
,,,,space,0.436,,0,43,43,81,1,S, , , , ,space,2000,2,Ben,001,2021-08-19_15h58.39.769,natb3,2021.2.3,Win32,60.04202942,611ceae6cc4047f40f350c53,611e07ecdcc96256ae8d5b80,611e71229f97de3eba06d7f4,
,,,,space,0.3849,,0,44,44,247,1,Z, , , , ,space,1500,1.5,Ben,001,2021-08-19_15h58.39.769,natb3,2021.2.3,Win32,60.04202942,611ceae6cc4047f40f350c53,611e07ecdcc96256ae8d5b80,611e71229f97de3eba06d7f4,
,,,,,,,0,45,45,69,1,X, , , , ,,1500,1.5,Ben,001,2021-08-19_15h58.39.769,natb3,2021.2.3,Win32,60.04202942,611ceae6cc4047f40f350c53,611e07ecdcc96256ae8d5b80,611e71229f97de3eba06d7f4,
,,,,space,0.4041,,0,46,46,0,1,Q, , , , ,space,1500,1.5,Ben,001,2021-08-19_15h58.39.769,natb3,2021.2.3,Win32,60.04202942,611ceae6cc4047f40f350c53,611e07ecdcc96256ae8d5b80,611e71229f97de3eba06d7f4,
,,,,space,0.4772,,0,47,47,108,1,Y, , , , ,space,2500,2.5,Ben,001,2021-08-19_15h58.39.769,natb3,2021.2.3,Win32,60.04202942,611ceae6cc4047f40f350c53,611e07ecdcc96256ae8d5b80,611e71229f97de3eba06d7f4,
,,,,space,0.4023,,0,48,48,106,1,T, , , , ,space,1500,1.5,Ben,001,2021-08-19_15h58.39.769,natb3,2021.2.3,Win32,60.04202942,611ceae6cc4047f40f350c53,611e07ecdcc96256ae8d5b80,611e71229f97de3eba06d7f4,
,,,,,,,0,49,49,33,1,X, , , , ,,1500,1.5,Ben,001,2021-08-19_15h58.39.769,natb3,2021.2.3,Win32,60.04202942,611ceae6cc4047f40f350c53,611e07ecdcc96256ae8d5b80,611e71229f97de3eba06d7f4,
,,,,space,0.5511,,0,50,50,9,1,I, , , , ,space,1500,1.5,Ben,001,2021-08-19_15h58.39.769,natb3,2021.2.3,Win32,60.04202942,611ceae6cc4047f40f350c53,611e07ecdcc96256ae8d5b80,611e71229f97de3eba06d7f4,
,,,,,,,0,51,51,102,1,X, ,6, , ,,1500,1.5,Ben,001,2021-08-19_15h58.39.769,natb3,2021.2.3,Win32,60.04202942,611ceae6cc4047f40f350c53,611e07ecdcc96256ae8d5b80,611e71229f97de3eba06d7f4,
,,,,,,,0,52,52,200,1,X,7, ,5,3,,1500,1.5,Ben,001,2021-08-19_15h58.39.769,natb3,2021.2.3,Win32,60.04202942,611ceae6cc4047f40f350c53,611e07ecdcc96256ae8d5b80,611e71229f97de3eba06d7f4,
,,,,,,,0,53,53,299,1,X, , , , ,,2500,2.5,Ben,001,2021-08-19_15h58.39.769,natb3,2021.2.3,Win32,60.04202942,611ceae6cc4047f40f350c53,611e07ecdcc96256ae8d5b80,611e71229f97de3eba06d7f4,
,,,,space,0.4412,,0,54,54,262,1,Y, , , , ,space,2500,2.5,Ben,001,2021-08-19_15h58.39.769,natb3,2021.2.3,Win32,60.04202942,611ceae6cc4047f40f350c53,611e07ecdcc96256ae8d5b80,611e71229f97de3eba06d7f4,
,,,,space,0.4083,,0,55,55,124,1,P, , , , ,space,2000,2,Ben,001,2021-08-19_15h58.39.769,natb3,2021.2.3,Win32,60.04202942,611ceae6cc4047f40f350c53,611e07ecdcc96256ae8d5b80,611e71229f97de3eba06d7f4,
,,,,space,0.8345,,0,56,56,114,1,E, , , , ,space,2000,2,Ben,001,2021-08-19_15h58.39.769,natb3,2021.2.3,Win32,60.04202942,611ceae6cc4047f40f350c53,611e07ecdcc96256ae8d5b80,611e71229f97de3eba06d7f4,
,,,,space,0.4678,,0,57,57,47,1,P, , , , ,space,2000,2,Ben,001,2021-08-19_15h58.39.769,natb3,2021.2.3,Win32,60.04202942,611ceae6cc4047f40f350c53,611e07ecdcc96256ae8d5b80,611e71229f97de3eba06d7f4,
,,,,,,,0,58,58,51,1,X,7,5,8, ,,1500,1.5,Ben,001,2021-08-19_15h58.39.769,natb3,2021.2.3,Win32,60.04202942,611ceae6cc4047f40f350c53,611e07ecdcc96256ae8d5b80,611e71229f97de3eba06d7f4,
,,,,,,,0,59,59,195,1,X, , , , ,,1500,1.5,Ben,001,2021-08-19_15h58.39.769,natb3,2021.2.3,Win32,60.04202942,611ceae6cc4047f40f350c53,611e07ecdcc96256ae8d5b80,611e71229f97de3eba06d7f4,
,,,,space,0.4676,,0,60,60,117,1,T, , , , ,space,2500,2.5,Ben,001,2021-08-19_15h58.39.769,natb3,2021.2.3,Win32,60.04202942,611ceae6cc4047f40f350c53,611e07ecdcc96256ae8d5b80,611e71229f97de3eba06d7f4,
,,,,space,0.4363,,0,61,61,65,1,M, , , , ,space,1500,1.5,Ben,001,2021-08-19_15h58.39.769,natb3,2021.2.3,Win32,60.04202942,611ceae6cc4047f40f350c53,611e07ecdcc96256ae8d5b80,611e71229f97de3eba06d7f4,
,,,,,,,0,62,62,329,1,X,3,4, ,2,,2500,2.5,Ben,001,2021-08-19_15h58.39.769,natb3,2021.2.3,Win32,60.04202942,611ceae6cc4047f40f350c53,611e07ecdcc96256ae8d5b80,611e71229f97de3eba06d7f4,
,,,,space,0.4681,,0,63,63,199,1,J, , , , ,space,2500,2.5,Ben,001,2021-08-19_15h58.39.769,natb3,2021.2.3,Win32,60.04202942,611ceae6cc4047f40f350c53,611e07ecdcc96256ae8d5b80,611e71229f97de3eba06d7f4,
,,,,space,0.3836,,0,64,64,21,1,J, , , , ,space,1500,1.5,Ben,001,2021-08-19_15h58.39.769,natb3,2021.2.3,Win32,60.04202942,611ceae6cc4047f40f350c53,611e07ecdcc96256ae8d5b80,611e71229f97de3eba06d7f4,
,,,,space,0.4552,,0,65,65,284,1,V, , , , ,space,2500,2.5,Ben,001,2021-08-19_15h58.39.769,natb3,2021.2.3,Win32,60.04202942,611ceae6cc4047f40f350c53,611e07ecdcc96256ae8d5b80,611e71229f97de3eba06d7f4,
,,,,space,0.4568,,0,66,66,44,1,I, , , , ,space,2500,2.5,Ben,001,2021-08-19_15h58.39.769,natb3,2021.2.3,Win32,60.04202942,611ceae6cc4047f40f350c53,611e07ecdcc96256ae8d5b80,611e71229f97de3eba06d7f4,
,,,,space,0.3886,,0,67,67,270,1,S, , , , ,space,1500,1.5,Ben,001,2021-08-19_15h58.39.769,natb3,2021.2.3,Win32,60.04202942,611ceae6cc4047f40f350c53,611e07ecdcc96256ae8d5b80,611e71229f97de3eba06d7f4,
,,,,,,,0,68,68,271,1,X, , , , ,,2500,2.5,Ben,001,2021-08-19_15h58.39.769,natb3,2021.2.3,Win32,60.04202942,611ceae6cc4047f40f350c53,611e07ecdcc96256ae8d5b80,611e71229f97de3eba06d7f4,
,,,,,,,0,69,69,98,1,X, , , , ,,2500,2.5,Ben,001,2021-08-19_15h58.39.769,natb3,2021.2.3,Win32,60.04202942,611ceae6cc4047f40f350c53,611e07ecdcc96256ae8d5b80,611e71229f97de3eba06d7f4,
,,,,space,0.4784,,0,70,70,142,1,N, , , , ,space,2500,2.5,Ben,001,2021-08-19_15h58.39.769,natb3,2021.2.3,Win32,60.04202942,611ceae6cc4047f40f350c53,611e07ecdcc96256ae8d5b80,611e71229f97de3eba06d7f4,
,,,,,,,0,71,71,96,1,X, , , , ,,1500,1.5,Ben,001,2021-08-19_15h58.39.769,natb3,2021.2.3,Win32,60.04202942,611ceae6cc4047f40f350c53,611e07ecdcc96256ae8d5b80,611e71229f97de3eba06d7f4,
,,,,space,0.4862,,0,72,72,226,1,R, , , , ,space,2000,2,Ben,001,2021-08-19_15h58.39.769,natb3,2021.2.3,Win32,60.04202942,611ceae6cc4047f40f350c53,611e07ecdcc96256ae8d5b80,611e71229f97de3eba06d7f4,
,,,,space,0.4741,,0,73,73,25,1,Z, , , , ,space,2500,2.5,Ben,001,2021-08-19_15h58.39.769,natb3,2021.2.3,Win32,60.04202942,611ceae6cc4047f40f350c53,611e07ecdcc96256ae8d5b80,611e71229f97de3eba06d7f4,
,,,,,,,0,74,74,145,1,X, , , , ,,2000,2,Ben,001,2021-08-19_15h58.39.769,natb3,2021.2.3,Win32,60.04202942,611ceae6cc4047f40f350c53,611e07ecdcc96256ae8d5b80,611e71229f97de3eba06d7f4,
,,,,space,0.4529,,0,75,75,197,1,G, , , , ,space,2500,2.5,Ben,001,2021-08-19_15h58.39.769,natb3,2021.2.3,Win32,60.04202942,611ceae6cc4047f40f350c53,611e07ecdcc96256ae8d5b80,611e71229f97de3eba06d7f4,
,,,,space,0.4593,,0,76,76,267,1,P, , , , ,space,2000,2,Ben,001,2021-08-19_15h58.39.769,natb3,2021.2.3,Win32,60.04202942,611ceae6cc4047f40f350c53,611e07ecdcc96256ae8d5b80,611e71229f97de3eba06d7f4,
,,,,,,,0,77,77,158,1,X, , , , ,,1500,1.5,Ben,001,2021-08-19_15h58.39.769,natb3,2021.2.3,Win32,60.04202942,611ceae6cc4047f40f350c53,611e07ecdcc96256ae8d5b80,611e71229f97de3eba06d7f4,
,,,,space,0.4856,,0,78,78,22,1,K, , , , ,space,2000,2,Ben,001,2021-08-19_15h58.39.769,natb3,2021.2.3,Win32,60.04202942,611ceae6cc4047f40f350c53,611e07ecdcc96256ae8d5b80,611e71229f97de3eba06d7f4,
,,,,,,,0,79,79,82,1,X,4,6,1,7,,2000,2,Ben,001,2021-08-19_15h58.39.769,natb3,2021.2.3,Win32,60.04202942,611ceae6cc4047f40f350c53,611e07ecdcc96256ae8d5b80,611e71229f97de3eba06d7f4,
,,,,space,0.394,,0,80,80,304,1,S, , , , ,space,2000,2,Ben,001,2021-08-19_15h58.39.769,natb3,2021.2.3,Win32,60.04202942,611ceae6cc4047f40f350c53,611e07ecdcc96256ae8d5b80,611e71229f97de3eba06d7f4,
,,,,space,0.4679,,0,81,81,334,1,O, , , , ,space,1500,1.5,Ben,001,2021-08-19_15h58.39.769,natb3,2021.2.3,Win32,60.04202942,611ceae6cc4047f40f350c53,611e07ecdcc96256ae8d5b80,611e71229f97de3eba06d7f4,
,,,,space,0.4351,,0,82,82,139,1,V, , , , ,space,2000,2,Ben,001,2021-08-19_15h58.39.769,natb3,2021.2.3,Win32,60.04202942,611ceae6cc4047f40f350c53,611e07ecdcc96256ae8d5b80,611e71229f97de3eba06d7f4,
,,,,space,0.4176,,0,83,83,70,1,E, , , , ,space,2500,2.5,Ben,001,2021-08-19_15h58.39.769,natb3,2021.2.3,Win32,60.04202942,611ceae6cc4047f40f350c53,611e07ecdcc96256ae8d5b80,611e71229f97de3eba06d7f4,
,,,,space,0.4394,,0,84,84,159,1,S, , , , ,space,2500,2.5,Ben,001,2021-08-19_15h58.39.769,natb3,2021.2.3,Win32,60.04202942,611ceae6cc4047f40f350c53,611e07ecdcc96256ae8d5b80,611e71229f97de3eba06d7f4,
,,,,space,0.4085,,0,85,85,240,1,F, , , , ,space,2500,2.5,Ben,001,2021-08-19_15h58.39.769,natb3,2021.2.3,Win32,60.04202942,611ceae6cc4047f40f350c53,611e07ecdcc96256ae8d5b80,611e71229f97de3eba06d7f4,
,,,,space,0.4184,,0,86,86,101,1,Q, , , , ,space,2500,2.5,Ben,001,2021-08-19_15h58.39.769,natb3,2021.2.3,Win32,60.04202942,611ceae6cc4047f40f350c53,611e07ecdcc96256ae8d5b80,611e71229f97de3eba06d7f4,
,,,,space,0.4019,,0,87,87,174,1,B, , , , ,space,2500,2.5,Ben,001,2021-08-19_15h58.39.769,natb3,2021.2.3,Win32,60.04202942,611ceae6cc4047f40f350c53,611e07ecdcc96256ae8d5b80,611e71229f97de3eba06d7f4,
,,,,,,,0,88,88,248,1,X, ,1,5, ,,1500,1.5,Ben,001,2021-08-19_15h58.39.769,natb3,2021.2.3,Win32,60.04202942,611ceae6cc4047f40f350c53,611e07ecdcc96256ae8d5b80,611e71229f97de3eba06d7f4,
,,,,space,0.3587,,0,89,89,123,1,O, , , , ,space,1500,1.5,Ben,001,2021-08-19_15h58.39.769,natb3,2021.2.3,Win32,60.04202942,611ceae6cc4047f40f350c53,611e07ecdcc96256ae8d5b80,611e71229f97de3eba06d7f4,
,,,,,,,0,90,90,84,1,X, , , , ,,2000,2,Ben,001,2021-08-19_15h58.39.769,natb3,2021.2.3,Win32,60.04202942,611ceae6cc4047f40f350c53,611e07ecdcc96256ae8d5b80,611e71229f97de3eba06d7f4,
,,,,space,0.4465,,0,91,91,190,1,P, , , , ,space,2000,2,Ben,001,2021-08-19_15h58.39.769,natb3,2021.2.3,Win32,60.04202942,611ceae6cc4047f40f350c53,611e07ecdcc96256ae8d5b80,611e71229f97de3eba06d7f4,
,,,,,,,0,92,92,313,1,X, , , , ,,2500,2.5,Ben,001,2021-08-19_15h58.39.769,natb3,2021.2.3,Win32,60.04202942,611ceae6cc4047f40f350c53,611e07ecdcc96256ae8d5b80,611e71229f97de3eba06d7f4,
,,,,space,0.4945,,0,93,93,10,1,O, , , , ,space,2000,2,Ben,001,2021-08-19_15h58.39.769,natb3,2021.2.3,Win32,60.04202942,611ceae6cc4047f40f350c53,611e07ecdcc96256ae8d5b80,611e71229f97de3eba06d7f4,
,,,,,,,0,94,94,162,1,X,1,6, ,2,,1500,1.5,Ben,001,2021-08-19_15h58.39.769,natb3,2021.2.3,Win32,60.04202942,611ceae6cc4047f40f350c53,611e07ecdcc96256ae8d5b80,611e71229f97de3eba06d7f4,
,,,,space,0.4422,,0,95,95,261,1,T, , , , ,space,2000,2,Ben,001,2021-08-19_15h58.39.769,natb3,2021.2.3,Win32,60.04202942,611ceae6cc4047f40f350c53,611e07ecdcc96256ae8d5b80,611e71229f97de3eba06d7f4,
,,,,space,0.4753,,0,96,96,301,1,P, , , , ,space,1500,1.5,Ben,001,2021-08-19_15h58.39.769,natb3,2021.2.3,Win32,60.04202942,611ceae6cc4047f40f350c53,611e07ecdcc96256ae8d5b80,611e71229f97de3eba06d7f4,
,,,,space,0.512,,0,97,97,113,1,W, , , , ,space,2500,2.5,Ben,001,2021-08-19_15h58.39.769,natb3,2021.2.3,Win32,60.04202942,611ceae6cc4047f40f350c53,611e07ecdcc96256ae8d5b80,611e71229f97de3eba06d7f4,
,,,,,,,0,98,98,252,1,X,3, ,6,9,,2000,2,Ben,001,2021-08-19_15h58.39.769,natb3,2021.2.3,Win32,60.04202942,611ceae6cc4047f40f350c53,611e07ecdcc96256ae8d5b80,611e71229f97de3eba06d7f4,
,,,,,,,0,99,99,138,1,X,8,5, ,3,,2000,2,Ben,001,2021-08-19_15h58.39.769,natb3,2021.2.3,Win32,60.04202942,611ceae6cc4047f40f350c53,611e07ecdcc96256ae8d5b80,611e71229f97de3eba06d7f4,
,,,,space,0.3675,,0,100,100,56,1,J, , , , ,space,1500,1.5,Ben,001,2021-08-19_15h58.39.769,natb3,2021.2.3,Win32,60.04202942,611ceae6cc4047f40f350c53,611e07ecdcc96256ae8d5b80,611e71229f97de3eba06d7f4,
,,,,space,0.453,,0,101,101,146,1,W, , , , ,space,1500,1.5,Ben,001,2021-08-19_15h58.39.769,natb3,2021.2.3,Win32,60.04202942,611ceae6cc4047f40f350c53,611e07ecdcc96256ae8d5b80,611e71229f97de3eba06d7f4,
,,,,space,0.6367,,0,102,102,278,1,J, , , , ,space,2000,2,Ben,001,2021-08-19_15h58.39.769,natb3,2021.2.3,Win32,60.04202942,611ceae6cc4047f40f350c53,611e07ecdcc96256ae8d5b80,611e71229f97de3eba06d7f4,
,,,,,,,0,103,103,141,1,X,1, ,4,6,,1500,1.5,Ben,001,2021-08-19_15h58.39.769,natb3,2021.2.3,Win32,60.04202942,611ceae6cc4047f40f350c53,611e07ecdcc96256ae8d5b80,611e71229f97de3eba06d7f4,
,,,,space,0.4619,,0,104,104,2,1,E, , , , ,space,2500,2.5,Ben,001,2021-08-19_15h58.39.769,natb3,2021.2.3,Win32,60.04202942,611ceae6cc4047f40f350c53,611e07ecdcc96256ae8d5b80,611e71229f97de3eba06d7f4,
,,,,,,,0,105,105,311,1,X,1,2,7,3,,2500,2.5,Ben,001,2021-08-19_15h58.39.769,natb3,2021.2.3,Win32,60.04202942,611ceae6cc4047f40f350c53,611e07ecdcc96256ae8d5b80,611e71229f97de3eba06d7f4,
,,,,,,,0,106,106,171,1,X, , , , ,,1500,1.5,Ben,001,2021-08-19_15h58.39.769,natb3,2021.2.3,Win32,60.04202942,611ceae6cc4047f40f350c53,611e07ecdcc96256ae8d5b80,611e71229f97de3eba06d7f4,
,,,,space,0.4364,,0,107,107,230,1,U, , , , ,space,1500,1.5,Ben,001,2021-08-19_15h58.39.769,natb3,2021.2.3,Win32,60.04202942,611ceae6cc4047f40f350c53,611e07ecdcc96256ae8d5b80,611e71229f97de3eba06d7f4,
,,,,,,,0,108,108,325,1,X, , , , ,,2500,2.5,Ben,001,2021-08-19_15h58.39.769,natb3,2021.2.3,Win32,60.04202942,611ceae6cc4047f40f350c53,611e07ecdcc96256ae8d5b80,611e71229f97de3eba06d7f4,
,,,,space,0.4342,,0,109,109,279,1,K, , , , ,space,2500,2.5,Ben,001,2021-08-19_15h58.39.769,natb3,2021.2.3,Win32,60.04202942,611ceae6cc4047f40f350c53,611e07ecdcc96256ae8d5b80,611e71229f97de3eba06d7f4,
,,,,space,0.4771,,0,110,110,157,1,A, , , , ,space,2500,2.5,Ben,001,2021-08-19_15h58.39.769,natb3,2021.2.3,Win32,60.04202942,611ceae6cc4047f40f350c53,611e07ecdcc96256ae8d5b80,611e71229f97de3eba06d7f4,
,,,,space,0.4277,,0,111,111,205,1,C, , , , ,space,2000,2,Ben,001,2021-08-19_15h58.39.769,natb3,2021.2.3,Win32,60.04202942,611ceae6cc4047f40f350c53,611e07ecdcc96256ae8d5b80,611e71229f97de3eba06d7f4,
,,,,space,0.3952,,0,112,112,167,1,K, , , , ,space,1500,1.5,Ben,001,2021-08-19_15h58.39.769,natb3,2021.2.3,Win32,60.04202942,611ceae6cc4047f40f350c53,611e07ecdcc96256ae8d5b80,611e71229f97de3eba06d7f4,
,,,,,,,0,113,113,318,1,X, , , , ,,1500,1.5,Ben,001,2021-08-19_15h58.39.769,natb3,2021.2.3,Win32,60.04202942,611ceae6cc4047f40f350c53,611e07ecdcc96256ae8d5b80,611e71229f97de3eba06d7f4,
,,,,space,0.4402,,0,114,114,130,1,F, , , , ,space,2000,2,Ben,001,2021-08-19_15h58.39.769,natb3,2021.2.3,Win32,60.04202942,611ceae6cc4047f40f350c53,611e07ecdcc96256ae8d5b80,611e71229f97de3eba06d7f4,
,,,,space,0.4345,,0,115,115,254,1,M, , , , ,space,1500,1.5,Ben,001,2021-08-19_15h58.39.769,natb3,2021.2.3,Win32,60.04202942,611ceae6cc4047f40f350c53,611e07ecdcc96256ae8d5b80,611e71229f97de3eba06d7f4,
,,,,space,0.5246,,0,116,116,316,1,Z, , , , ,space,1500,1.5,Ben,001,2021-08-19_15h58.39.769,natb3,2021.2.3,Win32,60.04202942,611ceae6cc4047f40f350c53,611e07ecdcc96256ae8d5b80,611e71229f97de3eba06d7f4,
,,,,space,0.571,,0,117,117,288,1,M, , , , ,space,1500,1.5,Ben,001,2021-08-19_15h58.39.769,natb3,2021.2.3,Win32,60.04202942,611ceae6cc4047f40f350c53,611e07ecdcc96256ae8d5b80,611e71229f97de3eba06d7f4,
,,,,space,0.5849,,0,118,118,308,1,G, , , , ,space,1500,1.5,Ben,001,2021-08-19_15h58.39.769,natb3,2021.2.3,Win32,60.04202942,611ceae6cc4047f40f350c53,611e07ecdcc96256ae8d5b80,611e71229f97de3eba06d7f4,
,,,,space,0.7694,,0,119,119,172,1,C, , , , ,space,1500,1.5,Ben,001,2021-08-19_15h58.39.769,natb3,2021.2.3,Win32,60.04202942,611ceae6cc4047f40f350c53,611e07ecdcc96256ae8d5b80,611e71229f97de3eba06d7f4,
,,,,space,0.5872,,0,120,120,155,1,O, , , , ,space,1500,1.5,Ben,001,2021-08-19_15h58.39.769,natb3,2021.2.3,Win32,60.04202942,611ceae6cc4047f40f350c53,611e07ecdcc96256ae8d5b80,611e71229f97de3eba06d7f4,
,,,,space,0.6996,,0,121,121,75,1,U, , , , ,space,1500,1.5,Ben,001,2021-08-19_15h58.39.769,natb3,2021.2.3,Win32,60.04202942,611ceae6cc4047f40f350c53,611e07ecdcc96256ae8d5b80,611e71229f97de3eba06d7f4,
,,,,space,0.6176,,0,122,122,265,1,I, , , , ,space,2000,2,Ben,001,2021-08-19_15h58.39.769,natb3,2021.2.3,Win32,60.04202942,611ceae6cc4047f40f350c53,611e07ecdcc96256ae8d5b80,611e71229f97de3eba06d7f4,
,,,,space,0.6061,,0,123,123,147,1,E, , , , ,space,2000,2,Ben,001,2021-08-19_15h58.39.769,natb3,2021.2.3,Win32,60.04202942,611ceae6cc4047f40f350c53,611e07ecdcc96256ae8d5b80,611e71229f97de3eba06d7f4,
,,,,space,0.4681,,0,124,124,246,1,L, , , , ,space,2500,2.5,Ben,001,2021-08-19_15h58.39.769,natb3,2021.2.3,Win32,60.04202942,611ceae6cc4047f40f350c53,611e07ecdcc96256ae8d5b80,611e71229f97de3eba06d7f4,
,,,,,,,0,125,125,182,1,X, , , , ,,1500,1.5,Ben,001,2021-08-19_15h58.39.769,natb3,2021.2.3,Win32,60.04202942,611ceae6cc4047f40f350c53,611e07ecdcc96256ae8d5b80,611e71229f97de3eba06d7f4,
,,,,space,0.5222,,0,126,126,274,1,F, , , , ,space,2000,2,Ben,001,2021-08-19_15h58.39.769,natb3,2021.2.3,Win32,60.04202942,611ceae6cc4047f40f350c53,611e07ecdcc96256ae8d5b80,611e71229f97de3eba06d7f4,
,,,,space,0.4512,,0,127,127,214,1,W, , , , ,space,2000,2,Ben,001,2021-08-19_15h58.39.769,natb3,2021.2.3,Win32,60.04202942,611ceae6cc4047f40f350c53,611e07ecdcc96256ae8d5b80,611e71229f97de3eba06d7f4,
,,,,space,0.4514,,0,128,128,181,1,E, , , , ,space,1500,1.5,Ben,001,2021-08-19_15h58.39.769,natb3,2021.2.3,Win32,60.04202942,611ceae6cc4047f40f350c53,611e07ecdcc96256ae8d5b80,611e71229f97de3eba06d7f4,
,,,,space,0.6746,,0,129,129,224,1,W, , , , ,space,1500,1.5,Ben,001,2021-08-19_15h58.39.769,natb3,2021.2.3,Win32,60.04202942,611ceae6cc4047f40f350c53,611e07ecdcc96256ae8d5b80,611e71229f97de3eba06d7f4,
,,,,space,0.4758,,0,130,130,143,1,M, , , , ,space,2500,2.5,Ben,001,2021-08-19_15h58.39.769,natb3,2021.2.3,Win32,60.04202942,611ceae6cc4047f40f350c53,611e07ecdcc96256ae8d5b80,611e71229f97de3eba06d7f4,
,,,,space,0.5185,,0,131,131,331,1,Y, , , , ,space,2500,2.5,Ben,001,2021-08-19_15h58.39.769,natb3,2021.2.3,Win32,60.04202942,611ceae6cc4047f40f350c53,611e07ecdcc96256ae8d5b80,611e71229f97de3eba06d7f4,
,,,,space,0.5511,,0,132,132,206,1,V, , , , ,space,2000,2,Ben,001,2021-08-19_15h58.39.769,natb3,2021.2.3,Win32,60.04202942,611ceae6cc4047f40f350c53,611e07ecdcc96256ae8d5b80,611e71229f97de3eba06d7f4,
,,,,space,0.405,,0,133,133,204,1,Z, , , , ,space,2000,2,Ben,001,2021-08-19_15h58.39.769,natb3,2021.2.3,Win32,60.04202942,611ceae6cc4047f40f350c53,611e07ecdcc96256ae8d5b80,611e71229f97de3eba06d7f4,
,,,,space,0.4541,,0,134,134,222,1,O, , , , ,space,2000,2,Ben,001,2021-08-19_15h58.39.769,natb3,2021.2.3,Win32,60.04202942,611ceae6cc4047f40f350c53,611e07ecdcc96256ae8d5b80,611e71229f97de3eba06d7f4,
,,,,space,0.5177,,0,135,135,58,1,L, , , , ,space,2000,2,Ben,001,2021-08-19_15h58.39.769,natb3,2021.2.3,Win32,60.04202942,611ceae6cc4047f40f350c53,611e07ecdcc96256ae8d5b80,611e71229f97de3eba06d7f4,
,,,,,,,0,136,136,282,1,X, , , , ,,2500,2.5,Ben,001,2021-08-19_15h58.39.769,natb3,2021.2.3,Win32,60.04202942,611ceae6cc4047f40f350c53,611e07ecdcc96256ae8d5b80,611e71229f97de3eba06d7f4,
,,,,,,,0,137,137,116,1,X, , , , ,,2000,2,Ben,001,2021-08-19_15h58.39.769,natb3,2021.2.3,Win32,60.04202942,611ceae6cc4047f40f350c53,611e07ecdcc96256ae8d5b80,611e71229f97de3eba06d7f4,
,,,,space,0.4843,,0,138,138,110,1,I, , , , ,space,1500,1.5,Ben,001,2021-08-19_15h58.39.769,natb3,2021.2.3,Win32,60.04202942,611ceae6cc4047f40f350c53,611e07ecdcc96256ae8d5b80,611e71229f97de3eba06d7f4,
,,,,space,0.5848,,0,139,139,94,1,C, , , , ,space,2000,2,Ben,001,2021-08-19_15h58.39.769,natb3,2021.2.3,Win32,60.04202942,611ceae6cc4047f40f350c53,611e07ecdcc96256ae8d5b80,611e71229f97de3eba06d7f4,
,,,,space,0.5385,,0,140,140,128,1,D, , , , ,space,2500,2.5,Ben,001,2021-08-19_15h58.39.769,natb3,2021.2.3,Win32,60.04202942,611ceae6cc4047f40f350c53,611e07ecdcc96256ae8d5b80,611e71229f97de3eba06d7f4,
,,,,,,,0,141,141,153,1,X,4,7, ,6,,2000,2,Ben,001,2021-08-19_15h58.39.769,natb3,2021.2.3,Win32,60.04202942,611ceae6cc4047f40f350c53,611e07ecdcc96256ae8d5b80,611e71229f97de3eba06d7f4,
,,,,space,0.5078,,0,142,142,198,1,H, , , , ,space,2500,2.5,Ben,001,2021-08-19_15h58.39.769,natb3,2021.2.3,Win32,60.04202942,611ceae6cc4047f40f350c53,611e07ecdcc96256ae8d5b80,611e71229f97de3eba06d7f4,
,,,,,,,0,143,143,18,1,X, ,2,5,8,,2500,2.5,Ben,001,2021-08-19_15h58.39.769,natb3,2021.2.3,Win32,60.04202942,611ceae6cc4047f40f350c53,611e07ecdcc96256ae8d5b80,611e71229f97de3eba06d7f4,
,,,,,,,0,144,144,35,1,X, , , , ,,2500,2.5,Ben,001,2021-08-19_15h58.39.769,natb3,2021.2.3,Win32,60.04202942,611ceae6cc4047f40f350c53,611e07ecdcc96256ae8d5b80,611e71229f97de3eba06d7f4,
,,,,,,,0,145,145,263,1,X,4, ,6, ,,1500,1.5,Ben,001,2021-08-19_15h58.39.769,natb3,2021.2.3,Win32,60.04202942,611ceae6cc4047f40f350c53,611e07ecdcc96256ae8d5b80,611e71229f97de3eba06d7f4,
,,,,space,0.4563,,0,146,146,216,1,R, , , , ,space,1500,1.5,Ben,001,2021-08-19_15h58.39.769,natb3,2021.2.3,Win32,60.04202942,611ceae6cc4047f40f350c53,611e07ecdcc96256ae8d5b80,611e71229f97de3eba06d7f4,
,,,,space,0.4216,,0,147,147,235,1,A, , , , ,space,1500,1.5,Ben,001,2021-08-19_15h58.39.769,natb3,2021.2.3,Win32,60.04202942,611ceae6cc4047f40f350c53,611e07ecdcc96256ae8d5b80,611e71229f97de3eba06d7f4,
,,,,space,0.4216,,0,148,148,183,1,R, , , , ,space,1500,1.5,Ben,001,2021-08-19_15h58.39.769,natb3,2021.2.3,Win32,60.04202942,611ceae6cc4047f40f350c53,611e07ecdcc96256ae8d5b80,611e71229f97de3eba06d7f4,
,,,,,,,0,149,149,335,1,P,,,,,space,1500,1.5,Ben,001,2021-08-19_15h58.39.769,natb3,2021.2.3,Win32,60.04202942,611ceae6cc4047f40f350c53,611e07ecdcc96256ae8d5b80,611e71229f97de3eba06d7f4,
,,,,space,0.7316,,0,150,150,136,1,Z, , , , ,space,2500,2.5,Ben,001,2021-08-19_15h58.39.769,natb3,2021.2.3,Win32,60.04202942,611ceae6cc4047f40f350c53,611e07ecdcc96256ae8d5b80,611e71229f97de3eba06d7f4,
,,,,space,0.5325,,0,151,151,228,1,Y, , , , ,space,2000,2,Ben,001,2021-08-19_15h58.39.769,natb3,2021.2.3,Win32,60.04202942,611ceae6cc4047f40f350c53,611e07ecdcc96256ae8d5b80,611e71229f97de3eba06d7f4,
,,,,space,0.6721,,0,152,152,219,1,Y, , , , ,space,2000,2,Ben,001,2021-08-19_15h58.39.769,natb3,2021.2.3,Win32,60.04202942,611ceae6cc4047f40f350c53,611e07ecdcc96256ae8d5b80,611e71229f97de3eba06d7f4,
,,,,,,,0,153,153,295,1,X,8,7,5, ,,2500,2.5,Ben,001,2021-08-19_15h58.39.769,natb3,2021.2.3,Win32,60.04202942,611ceae6cc4047f40f350c53,611e07ecdcc96256ae8d5b80,611e71229f97de3eba06d7f4,
,,,,space,0.5012,,0,154,154,330,1,T, , , , ,space,2500,2.5,Ben,001,2021-08-19_15h58.39.769,natb3,2021.2.3,Win32,60.04202942,611ceae6cc4047f40f350c53,611e07ecdcc96256ae8d5b80,611e71229f97de3eba06d7f4,
,,,,space,0.432,,0,155,155,307,1,F, , , , ,space,2500,2.5,Ben,001,2021-08-19_15h58.39.769,natb3,2021.2.3,Win32,60.04202942,611ceae6cc4047f40f350c53,611e07ecdcc96256ae8d5b80,611e71229f97de3eba06d7f4,
,,,,space,0.4574,,0,156,156,220,1,U, , , , ,space,2500,2.5,Ben,001,2021-08-19_15h58.39.769,natb3,2021.2.3,Win32,60.04202942,611ceae6cc4047f40f350c53,611e07ecdcc96256ae8d5b80,611e71229f97de3eba06d7f4,
,,,,space,0.4087,,0,157,157,285,1,B, , , , ,space,1500,1.5,Ben,001,2021-08-19_15h58.39.769,natb3,2021.2.3,Win32,60.04202942,611ceae6cc4047f40f350c53,611e07ecdcc96256ae8d5b80,611e71229f97de3eba06d7f4,
,,,,space,0.601,,0,158,158,137,1,C, , , , ,space,2500,2.5,Ben,001,2021-08-19_15h58.39.769,natb3,2021.2.3,Win32,60.04202942,611ceae6cc4047f40f350c53,611e07ecdcc96256ae8d5b80,611e71229f97de3eba06d7f4,
,,,,space,0.4599,,0,159,159,32,1,M, , , , ,space,1500,1.5,Ben,001,2021-08-19_15h58.39.769,natb3,2021.2.3,Win32,60.04202942,611ceae6cc4047f40f350c53,611e07ecdcc96256ae8d5b80,611e71229f97de3eba06d7f4,
,,,,space,0.4887,,0,160,160,8,1,U, , , , ,space,1500,1.5,Ben,001,2021-08-19_15h58.39.769,natb3,2021.2.3,Win32,60.04202942,611ceae6cc4047f40f350c53,611e07ecdcc96256ae8d5b80,611e71229f97de3eba06d7f4,
,,,,space,0.6096,,0,161,161,24,1,L, , , , ,space,2500,2.5,Ben,001,2021-08-19_15h58.39.769,natb3,2021.2.3,Win32,60.04202942,611ceae6cc4047f40f350c53,611e07ecdcc96256ae8d5b80,611e71229f97de3eba06d7f4,
,,,,space,0.4404,,0,162,162,317,1,C, , , , ,space,2000,2,Ben,001,2021-08-19_15h58.39.769,natb3,2021.2.3,Win32,60.04202942,611ceae6cc4047f40f350c53,611e07ecdcc96256ae8d5b80,611e71229f97de3eba06d7f4,
,,,,,,,0,163,163,133,1,X, ,4, ,6,,2500,2.5,Ben,001,2021-08-19_15h58.39.769,natb3,2021.2.3,Win32,60.04202942,611ceae6cc4047f40f350c53,611e07ecdcc96256ae8d5b80,611e71229f97de3eba06d7f4,
,,,,space,0.4513,,0,164,164,332,1,U, , , , ,space,2000,2,Ben,001,2021-08-19_15h58.39.769,natb3,2021.2.3,Win32,60.04202942,611ceae6cc4047f40f350c53,611e07ecdcc96256ae8d5b80,611e71229f97de3eba06d7f4,
,,,,space,0.4415,,0,165,165,13,1,A, , , , ,space,2000,2,Ben,001,2021-08-19_15h58.39.769,natb3,2021.2.3,Win32,60.04202942,611ceae6cc4047f40f350c53,611e07ecdcc96256ae8d5b80,611e71229f97de3eba06d7f4,
,,,,space,0.4097,,0,166,166,5,1,T, , , , ,space,2000,2,Ben,001,2021-08-19_15h58.39.769,natb3,2021.2.3,Win32,60.04202942,611ceae6cc4047f40f350c53,611e07ecdcc96256ae8d5b80,611e71229f97de3eba06d7f4,
,,,,space,0.4208,space,0,167,167,189,1,O, , , , ,space,1500,1.5,Ben,001,2021-08-19_15h58.39.769,natb3,2021.2.3,Win32,60.04202942,611ceae6cc4047f40f350c53,611e07ecdcc96256ae8d5b80,611e71229f97de3eba06d7f4,75.9302
,,,,space,0.4677,,0,168,168,105,1,R, , , , ,space,2500,2.5,Ben,001,2021-08-19_15h58.39.769,natb3,2021.2.3,Win32,60.04202942,611ceae6cc4047f40f350c53,611e07ecdcc96256ae8d5b80,611e71229f97de3eba06d7f4,
,,,,space,0.6018,,0,169,169,49,1,S, , , , ,space,1500,1.5,Ben,001,2021-08-19_15h58.39.769,natb3,2021.2.3,Win32,60.04202942,611ceae6cc4047f40f350c53,611e07ecdcc96256ae8d5b80,611e71229f97de3eba06d7f4,
,,,,,,,0,170,170,273,1,X, , , , ,,2000,2,Ben,001,2021-08-19_15h58.39.769,natb3,2021.2.3,Win32,60.04202942,611ceae6cc4047f40f350c53,611e07ecdcc96256ae8d5b80,611e71229f97de3eba06d7f4,
,,,,space,0.4405,,0,171,171,221,1,I, , , , ,space,2500,2.5,Ben,001,2021-08-19_15h58.39.769,natb3,2021.2.3,Win32,60.04202942,611ceae6cc4047f40f350c53,611e07ecdcc96256ae8d5b80,611e71229f97de3eba06d7f4,
,,,,space,0.452,,0,172,172,257,1,W, , , , ,space,2000,2,Ben,001,2021-08-19_15h58.39.769,natb3,2021.2.3,Win32,60.04202942,611ceae6cc4047f40f350c53,611e07ecdcc96256ae8d5b80,611e71229f97de3eba06d7f4,
,,,,,,,0,173,173,175,1,X,7, ,4,2,,1500,1.5,Ben,001,2021-08-19_15h58.39.769,natb3,2021.2.3,Win32,60.04202942,611ceae6cc4047f40f350c53,611e07ecdcc96256ae8d5b80,611e71229f97de3eba06d7f4,
,,,,,,,0,174,174,322,1,X, , ,1,6,,2000,2,Ben,001,2021-08-19_15h58.39.769,natb3,2021.2.3,Win32,60.04202942,611ceae6cc4047f40f350c53,611e07ecdcc96256ae8d5b80,611e71229f97de3eba06d7f4,
,,,,space,0.4621,,0,175,175,119,1,Y, , , , ,space,2500,2.5,Ben,001,2021-08-19_15h58.39.769,natb3,2021.2.3,Win32,60.04202942,611ceae6cc4047f40f350c53,611e07ecdcc96256ae8d5b80,611e71229f97de3eba06d7f4,
,,,,space,0.4012,,0,176,176,19,1,G, , , , ,space,1500,1.5,Ben,001,2021-08-19_15h58.39.769,natb3,2021.2.3,Win32,60.04202942,611ceae6cc4047f40f350c53,611e07ecdcc96256ae8d5b80,611e71229f97de3eba06d7f4,
,,,,,,,0,177,177,168,1,X, , , , ,,2500,2.5,Ben,001,2021-08-19_15h58.39.769,natb3,2021.2.3,Win32,60.04202942,611ceae6cc4047f40f350c53,611e07ecdcc96256ae8d5b80,611e71229f97de3eba06d7f4,
,,,,,,,0,178,178,255,1,X, , , , ,,1500,1.5,Ben,001,2021-08-19_15h58.39.769,natb3,2021.2.3,Win32,60.04202942,611ceae6cc4047f40f350c53,611e07ecdcc96256ae8d5b80,611e71229f97de3eba06d7f4,
,,,,space,0.4528,,0,179,179,111,1,O, , , , ,space,2000,2,Ben,001,2021-08-19_15h58.39.769,natb3,2021.2.3,Win32,60.04202942,611ceae6cc4047f40f350c53,611e07ecdcc96256ae8d5b80,611e71229f97de3eba06d7f4,
,,,,,,,0,180,180,31,1,X, , , , ,,1500,1.5,Ben,001,2021-08-19_15h58.39.769,natb3,2021.2.3,Win32,60.04202942,611ceae6cc4047f40f350c53,611e07ecdcc96256ae8d5b80,611e71229f97de3eba06d7f4,
,,,,space,0.4268,,0,181,181,97,1,B, , , , ,space,2500,2.5,Ben,001,2021-08-19_15h58.39.769,natb3,2021.2.3,Win32,60.04202942,611ceae6cc4047f40f350c53,611e07ecdcc96256ae8d5b80,611e71229f97de3eba06d7f4,
,,,,space,0.4012,,0,182,182,154,1,I, , , , ,space,2500,2.5,Ben,001,2021-08-19_15h58.39.769,natb3,2021.2.3,Win32,60.04202942,611ceae6cc4047f40f350c53,611e07ecdcc96256ae8d5b80,611e71229f97de3eba06d7f4,
,,,,space,0.3854,,0,183,183,140,1,B, , , , ,space,2500,2.5,Ben,001,2021-08-19_15h58.39.769,natb3,2021.2.3,Win32,60.04202942,611ceae6cc4047f40f350c53,611e07ecdcc96256ae8d5b80,611e71229f97de3eba06d7f4,
,,,,space,0.3834,,0,184,184,77,1,O, , , , ,space,2000,2,Ben,001,2021-08-19_15h58.39.769,natb3,2021.2.3,Win32,60.04202942,611ceae6cc4047f40f350c53,611e07ecdcc96256ae8d5b80,611e71229f97de3eba06d7f4,
,,,,space,0.4344,,0,185,185,100,1,M, , , , ,space,2000,2,Ben,001,2021-08-19_15h58.39.769,natb3,2021.2.3,Win32,60.04202942,611ceae6cc4047f40f350c53,611e07ecdcc96256ae8d5b80,611e71229f97de3eba06d7f4,
,,,,,,,0,186,186,191,1,X,1, ,3,4,,2500,2.5,Ben,001,2021-08-19_15h58.39.769,natb3,2021.2.3,Win32,60.04202942,611ceae6cc4047f40f350c53,611e07ecdcc96256ae8d5b80,611e71229f97de3eba06d7f4,
,,,,,,,0,187,187,291,1,X, , , , ,,2000,2,Ben,001,2021-08-19_15h58.39.769,natb3,2021.2.3,Win32,60.04202942,611ceae6cc4047f40f350c53,611e07ecdcc96256ae8d5b80,611e71229f97de3eba06d7f4,
,,,,space,0.4014,,0,188,188,126,1,A, , , , ,space,2500,2.5,Ben,001,2021-08-19_15h58.39.769,natb3,2021.2.3,Win32,60.04202942,611ceae6cc4047f40f350c53,611e07ecdcc96256ae8d5b80,611e71229f97de3eba06d7f4,
,,,,,,,0,189,189,107,1,X,9,3, ,2,,2000,2,Ben,001,2021-08-19_15h58.39.769,natb3,2021.2.3,Win32,60.04202942,611ceae6cc4047f40f350c53,611e07ecdcc96256ae8d5b80,611e71229f97de3eba06d7f4,
,,,,space,0.3904,,0,190,190,91,1,L, , , , ,space,2000,2,Ben,001,2021-08-19_15h58.39.769,natb3,2021.2.3,Win32,60.04202942,611ceae6cc4047f40f350c53,611e07ecdcc96256ae8d5b80,611e71229f97de3eba06d7f4,
,,,,space,0.412,,0,191,191,232,1,O, , , , ,space,2500,2.5,Ben,001,2021-08-19_15h58.39.769,natb3,2021.2.3,Win32,60.04202942,611ceae6cc4047f40f350c53,611e07ecdcc96256ae8d5b80,611e71229f97de3eba06d7f4,
,,,,space,0.4076,,0,192,192,253,1,N, , , , ,space,2500,2.5,Ben,001,2021-08-19_15h58.39.769,natb3,2021.2.3,Win32,60.04202942,611ceae6cc4047f40f350c53,611e07ecdcc96256ae8d5b80,611e71229f97de3eba06d7f4,
,,,,,,,0,193,193,236,1,X,3, ,4,7,,2500,2.5,Ben,001,2021-08-19_15h58.39.769,natb3,2021.2.3,Win32,60.04202942,611ceae6cc4047f40f350c53,611e07ecdcc96256ae8d5b80,611e71229f97de3eba06d7f4,
,,,,space,0.3878,,0,194,194,310,1,J, , , , ,space,2500,2.5,Ben,001,2021-08-19_15h58.39.769,natb3,2021.2.3,Win32,60.04202942,611ceae6cc4047f40f350c53,611e07ecdcc96256ae8d5b80,611e71229f97de3eba06d7f4,
,,,,space,0.8682,,0,195,195,62,1,V, , , , ,space,1500,1.5,Ben,001,2021-08-19_15h58.39.769,natb3,2021.2.3,Win32,60.04202942,611ceae6cc4047f40f350c53,611e07ecdcc96256ae8d5b80,611e71229f97de3eba06d7f4,
,,,,space,0.3604,,0,196,196,161,1,F, , , , ,space,1500,1.5,Ben,001,2021-08-19_15h58.39.769,natb3,2021.2.3,Win32,60.04202942,611ceae6cc4047f40f350c53,611e07ecdcc96256ae8d5b80,611e71229f97de3eba06d7f4,
,,,,space,0.3429,,0,197,197,86,1,G, , , , ,space,2000,2,Ben,001,2021-08-19_15h58.39.769,natb3,2021.2.3,Win32,60.04202942,611ceae6cc4047f40f350c53,611e07ecdcc96256ae8d5b80,611e71229f97de3eba06d7f4,
,,,,space,0.3382,,0,198,198,20,1,H, , , , ,space,1500,1.5,Ben,001,2021-08-19_15h58.39.769,natb3,2021.2.3,Win32,60.04202942,611ceae6cc4047f40f350c53,611e07ecdcc96256ae8d5b80,611e71229f97de3eba06d7f4,
,,,,space,0.3178,,0,199,199,298,1,I, , , , ,space,2000,2,Ben,001,2021-08-19_15h58.39.769,natb3,2021.2.3,Win32,60.04202942,611ceae6cc4047f40f350c53,611e07ecdcc96256ae8d5b80,611e71229f97de3eba06d7f4,
,,,,space,0.3339,,0,200,200,320,1,B, , , , ,space,1500,1.5,Ben,001,2021-08-19_15h58.39.769,natb3,2021.2.3,Win32,60.04202942,611ceae6cc4047f40f350c53,611e07ecdcc96256ae8d5b80,611e71229f97de3eba06d7f4,
,,,,space,0.3223,,0,201,201,283,1,C, , , , ,space,1500,1.5,Ben,001,2021-08-19_15h58.39.769,natb3,2021.2.3,Win32,60.04202942,611ceae6cc4047f40f350c53,611e07ecdcc96256ae8d5b80,611e71229f97de3eba06d7f4,
,,,,space,0.3346,,0,202,202,292,1,E, , , , ,space,2000,2,Ben,001,2021-08-19_15h58.39.769,natb3,2021.2.3,Win32,60.04202942,611ceae6cc4047f40f350c53,611e07ecdcc96256ae8d5b80,611e71229f97de3eba06d7f4,
,,,,space,0.3516,,0,203,203,324,1,Q, , , , ,space,2000,2,Ben,001,2021-08-19_15h58.39.769,natb3,2021.2.3,Win32,60.04202942,611ceae6cc4047f40f350c53,611e07ecdcc96256ae8d5b80,611e71229f97de3eba06d7f4,
,,,,space,0.3679,,0,204,204,237,1,S, , , , ,space,1500,1.5,Ben,001,2021-08-19_15h58.39.769,natb3,2021.2.3,Win32,60.04202942,611ceae6cc4047f40f350c53,611e07ecdcc96256ae8d5b80,611e71229f97de3eba06d7f4,
,,,,space,0.327,,0,205,205,59,1,Z, , , , ,space,2000,2,Ben,001,2021-08-19_15h58.39.769,natb3,2021.2.3,Win32,60.04202942,611ceae6cc4047f40f350c53,611e07ecdcc96256ae8d5b80,611e71229f97de3eba06d7f4,
,,,,space,0.6847,,0,206,206,275,1,G, , , , ,space,1500,1.5,Ben,001,2021-08-19_15h58.39.769,natb3,2021.2.3,Win32,60.04202942,611ceae6cc4047f40f350c53,611e07ecdcc96256ae8d5b80,611e71229f97de3eba06d7f4,
,,,,space,0.4174,,0,207,207,67,1,Q, , , , ,space,2000,2,Ben,001,2021-08-19_15h58.39.769,natb3,2021.2.3,Win32,60.04202942,611ceae6cc4047f40f350c53,611e07ecdcc96256ae8d5b80,611e71229f97de3eba06d7f4,
,,,,space,0.3847,,0,208,208,170,1,Z, , , , ,space,2000,2,Ben,001,2021-08-19_15h58.39.769,natb3,2021.2.3,Win32,60.04202942,611ceae6cc4047f40f350c53,611e07ecdcc96256ae8d5b80,611e71229f97de3eba06d7f4,
,,,,space,0.4335,,0,209,209,201,1,K, , , , ,space,1500,1.5,Ben,001,2021-08-19_15h58.39.769,natb3,2021.2.3,Win32,60.04202942,611ceae6cc4047f40f350c53,611e07ecdcc96256ae8d5b80,611e71229f97de3eba06d7f4,
,,,,space,0.3049,,0,210,210,231,1,I, , , , ,space,2500,2.5,Ben,001,2021-08-19_15h58.39.769,natb3,2021.2.3,Win32,60.04202942,611ceae6cc4047f40f350c53,611e07ecdcc96256ae8d5b80,611e71229f97de3eba06d7f4,
,,,,,,,0,211,211,43,1,X, ,6, ,2,,2500,2.5,Ben,001,2021-08-19_15h58.39.769,natb3,2021.2.3,Win32,60.04202942,611ceae6cc4047f40f350c53,611e07ecdcc96256ae8d5b80,611e71229f97de3eba06d7f4,
,,,,,,,0,212,212,78,1,X, , , , ,,2000,2,Ben,001,2021-08-19_15h58.39.769,natb3,2021.2.3,Win32,60.04202942,611ceae6cc4047f40f350c53,611e07ecdcc96256ae8d5b80,611e71229f97de3eba06d7f4,
,,,,space,0.3654,,0,213,213,156,1,P, , , , ,space,1500,1.5,Ben,001,2021-08-19_15h58.39.769,natb3,2021.2.3,Win32,60.04202942,611ceae6cc4047f40f350c53,611e07ecdcc96256ae8d5b80,611e71229f97de3eba06d7f4,
,,,,space,0.2742,,0,214,214,3,1,R, , , , ,space,2000,2,Ben,001,2021-08-19_15h58.39.769,natb3,2021.2.3,Win32,60.04202942,611ceae6cc4047f40f350c53,611e07ecdcc96256ae8d5b80,611e71229f97de3eba06d7f4,
,,,,space,0.3134,,0,215,215,6,1,Y, , , , ,space,2500,2.5,Ben,001,2021-08-19_15h58.39.769,natb3,2021.2.3,Win32,60.04202942,611ceae6cc4047f40f350c53,611e07ecdcc96256ae8d5b80,611e71229f97de3eba06d7f4,
,,,,space,0.2843,,0,216,216,54,1,X, , , , ,,2000,2,Ben,001,2021-08-19_15h58.39.769,natb3,2021.2.3,Win32,60.04202942,611ceae6cc4047f40f350c53,611e07ecdcc96256ae8d5b80,611e71229f97de3eba06d7f4,
,,,,space,0.355,,0,217,217,79,1,P, , , , ,space,2000,2,Ben,001,2021-08-19_15h58.39.769,natb3,2021.2.3,Win32,60.04202942,611ceae6cc4047f40f350c53,611e07ecdcc96256ae8d5b80,611e71229f97de3eba06d7f4,
,,,,space,0.4173,,0,218,218,115,1,R, , , , ,space,1500,1.5,Ben,001,2021-08-19_15h58.39.769,natb3,2021.2.3,Win32,60.04202942,611ceae6cc4047f40f350c53,611e07ecdcc96256ae8d5b80,611e71229f97de3eba06d7f4,
,,,,space,0.4684,,0,219,219,264,1,U, , , , ,space,2000,2,Ben,001,2021-08-19_15h58.39.769,natb3,2021.2.3,Win32,60.04202942,611ceae6cc4047f40f350c53,611e07ecdcc96256ae8d5b80,611e71229f97de3eba06d7f4,
,,,,,,,0,220,220,4,1,X, , , , ,,2000,2,Ben,001,2021-08-19_15h58.39.769,natb3,2021.2.3,Win32,60.04202942,611ceae6cc4047f40f350c53,611e07ecdcc96256ae8d5b80,611e71229f97de3eba06d7f4,
,,,,space,0.3797,,0,221,221,29,1,B, , , , ,space,1500,1.5,Ben,001,2021-08-19_15h58.39.769,natb3,2021.2.3,Win32,60.04202942,611ceae6cc4047f40f350c53,611e07ecdcc96256ae8d5b80,611e71229f97de3eba06d7f4,
,,,,,,,0,222,222,60,1,X,7,3,5, ,,1500,1.5,Ben,001,2021-08-19_15h58.39.769,natb3,2021.2.3,Win32,60.04202942,611ceae6cc4047f40f350c53,611e07ecdcc96256ae8d5b80,611e71229f97de3eba06d7f4,
,,,,space,0.3516,,0,223,223,42,1,U, , , , ,space,1500,1.5,Ben,001,2021-08-19_15h58.39.769,natb3,2021.2.3,Win32,60.04202942,611ceae6cc4047f40f350c53,611e07ecdcc96256ae8d5b80,611e71229f97de3eba06d7f4,
,,,,,,,0,224,224,229,1,X,8, ,2,6,,2500,2.5,Ben,001,2021-08-19_15h58.39.769,natb3,2021.2.3,Win32,60.04202942,611ceae6cc4047f40f350c53,611e07ecdcc96256ae8d5b80,611e71229f97de3eba06d7f4,
,,,,,,,0,225,225,7,1,X, , , , ,,1500,1.5,Ben,001,2021-08-19_15h58.39.769,natb3,2021.2.3,Win32,60.04202942,611ceae6cc4047f40f350c53,611e07ecdcc96256ae8d5b80,611e71229f97de3eba06d7f4,
,,,,,,,0,226,226,218,1,X,1,3, ,8,,1500,1.5,Ben,001,2021-08-19_15h58.39.769,natb3,2021.2.3,Win32,60.04202942,611ceae6cc4047f40f350c53,611e07ecdcc96256ae8d5b80,611e71229f97de3eba06d7f4,
,,,,space,0.5605,,0,227,227,180,1,W, , , , ,space,2000,2,Ben,001,2021-08-19_15h58.39.769,natb3,2021.2.3,Win32,60.04202942,611ceae6cc4047f40f350c53,611e07ecdcc96256ae8d5b80,611e71229f97de3eba06d7f4,
,,,,space,0.3729,,0,228,228,71,1,R, , , , ,space,2500,2.5,Ben,001,2021-08-19_15h58.39.769,natb3,2021.2.3,Win32,60.04202942,611ceae6cc4047f40f350c53,611e07ecdcc96256ae8d5b80,611e71229f97de3eba06d7f4,
,,,,space,0.3673,,0,229,229,52,1,F, , , , ,space,1500,1.5,Ben,001,2021-08-19_15h58.39.769,natb3,2021.2.3,Win32,60.04202942,611ceae6cc4047f40f350c53,611e07ecdcc96256ae8d5b80,611e71229f97de3eba06d7f4,
,,,,space,0.334,,0,230,230,289,1,Q, , , , ,space,2000,2,Ben,001,2021-08-19_15h58.39.769,natb3,2021.2.3,Win32,60.04202942,611ceae6cc4047f40f350c53,611e07ecdcc96256ae8d5b80,611e71229f97de3eba06d7f4,
,,,,space,0.4212,,0,231,231,41,1,Y, , , , ,space,2500,2.5,Ben,001,2021-08-19_15h58.39.769,natb3,2021.2.3,Win32,60.04202942,611ceae6cc4047f40f350c53,611e07ecdcc96256ae8d5b80,611e71229f97de3eba06d7f4,
,,,,space,0.3558,,0,232,232,30,1,N, , , , ,space,2500,2.5,Ben,001,2021-08-19_15h58.39.769,natb3,2021.2.3,Win32,60.04202942,611ceae6cc4047f40f350c53,611e07ecdcc96256ae8d5b80,611e71229f97de3eba06d7f4,
,,,,space,0.3745,,0,233,233,286,1,N, , , , ,space,1500,1.5,Ben,001,2021-08-19_15h58.39.769,natb3,2021.2.3,Win32,60.04202942,611ceae6cc4047f40f350c53,611e07ecdcc96256ae8d5b80,611e71229f97de3eba06d7f4,
,,,,,,,0,234,234,277,1,X,8,5, ,2,,2000,2,Ben,001,2021-08-19_15h58.39.769,natb3,2021.2.3,Win32,60.04202942,611ceae6cc4047f40f350c53,611e07ecdcc96256ae8d5b80,611e71229f97de3eba06d7f4,
,,,,space,0.3933,,0,235,235,85,1,F, , , , ,space,2500,2.5,Ben,001,2021-08-19_15h58.39.769,natb3,2021.2.3,Win32,60.04202942,611ceae6cc4047f40f350c53,611e07ecdcc96256ae8d5b80,611e71229f97de3eba06d7f4,
,,,,space,0.359,,0,236,236,37,1,E, , , , ,space,2500,2.5,Ben,001,2021-08-19_15h58.39.769,natb3,2021.2.3,Win32,60.04202942,611ceae6cc4047f40f350c53,611e07ecdcc96256ae8d5b80,611e71229f97de3eba06d7f4,
,,,,space,0.3416,,0,237,237,120,1,U, , , , ,space,1500,1.5,Ben,001,2021-08-19_15h58.39.769,natb3,2021.2.3,Win32,60.04202942,611ceae6cc4047f40f350c53,611e07ecdcc96256ae8d5b80,611e71229f97de3eba06d7f4,
,,,,space,0.3404,,0,238,238,280,1,L, , , , ,space,1500,1.5,Ben,001,2021-08-19_15h58.39.769,natb3,2021.2.3,Win32,60.04202942,611ceae6cc4047f40f350c53,611e07ecdcc96256ae8d5b80,611e71229f97de3eba06d7f4,
,,,,,,,0,239,239,305,1,X, , , , ,,1500,1.5,Ben,001,2021-08-19_15h58.39.769,natb3,2021.2.3,Win32,60.04202942,611ceae6cc4047f40f350c53,611e07ecdcc96256ae8d5b80,611e71229f97de3eba06d7f4,
,,,,,,,0,240,240,287,1,X, ,2, ,9,,2000,2,Ben,001,2021-08-19_15h58.39.769,natb3,2021.2.3,Win32,60.04202942,611ceae6cc4047f40f350c53,611e07ecdcc96256ae8d5b80,611e71229f97de3eba06d7f4,
,,,,space,0.4858,,0,241,241,68,1,W, , , , ,space,2500,2.5,Ben,001,2021-08-19_15h58.39.769,natb3,2021.2.3,Win32,60.04202942,611ceae6cc4047f40f350c53,611e07ecdcc96256ae8d5b80,611e71229f97de3eba06d7f4,
,,,,space,0.354,,0,242,242,193,1,S, , , , ,space,2500,2.5,Ben,001,2021-08-19_15h58.39.769,natb3,2021.2.3,Win32,60.04202942,611ceae6cc4047f40f350c53,611e07ecdcc96256ae8d5b80,611e71229f97de3eba06d7f4,
,,,,space,0.3152,,0,243,243,95,1,V, , , , ,space,1500,1.5,Ben,001,2021-08-19_15h58.39.769,natb3,2021.2.3,Win32,60.04202942,611ceae6cc4047f40f350c53,611e07ecdcc96256ae8d5b80,611e71229f97de3eba06d7f4,
,,,,,,,0,244,244,27,1,X,5, ,1,3,,1500,1.5,Ben,001,2021-08-19_15h58.39.769,natb3,2021.2.3,Win32,60.04202942,611ceae6cc4047f40f350c53,611e07ecdcc96256ae8d5b80,611e71229f97de3eba06d7f4,
,,,,space,0.3561,,0,245,245,151,1,Y, , , , ,space,2500,2.5,Ben,001,2021-08-19_15h58.39.769,natb3,2021.2.3,Win32,60.04202942,611ceae6cc4047f40f350c53,611e07ecdcc96256ae8d5b80,611e71229f97de3eba06d7f4,
,,,,space,0.3393,,0,246,246,99,1,N, , , , ,space,2500,2.5,Ben,001,2021-08-19_15h58.39.769,natb3,2021.2.3,Win32,60.04202942,611ceae6cc4047f40f350c53,611e07ecdcc96256ae8d5b80,611e71229f97de3eba06d7f4,
,,,,,,,0,247,247,118,1,X, , , , ,,2000,2,Ben,001,2021-08-19_15h58.39.769,natb3,2021.2.3,Win32,60.04202942,611ceae6cc4047f40f350c53,611e07ecdcc96256ae8d5b80,611e71229f97de3eba06d7f4,
,,,,space,0.3548,,0,248,248,169,1,L, , , , ,space,2500,2.5,Ben,001,2021-08-19_15h58.39.769,natb3,2021.2.3,Win32,60.04202942,611ceae6cc4047f40f350c53,611e07ecdcc96256ae8d5b80,611e71229f97de3eba06d7f4,
,,,,space,0.3438,,0,249,249,160,1,D, , , , ,space,1500,1.5,Ben,001,2021-08-19_15h58.39.769,natb3,2021.2.3,Win32,60.04202942,611ceae6cc4047f40f350c53,611e07ecdcc96256ae8d5b80,611e71229f97de3eba06d7f4,
,,,,,,,0,250,250,243,1,X, , , , ,,2500,2.5,Ben,001,2021-08-19_15h58.39.769,natb3,2021.2.3,Win32,60.04202942,611ceae6cc4047f40f350c53,611e07ecdcc96256ae8d5b80,611e71229f97de3eba06d7f4,
,,,,space,0.3842,,0,251,251,149,1,R, , , , ,space,2000,2,Ben,001,2021-08-19_15h58.39.769,natb3,2021.2.3,Win32,60.04202942,611ceae6cc4047f40f350c53,611e07ecdcc96256ae8d5b80,611e71229f97de3eba06d7f4,
,,,,space,0.3509,,0,252,252,312,1,K, , , , ,space,2000,2,Ben,001,2021-08-19_15h58.39.769,natb3,2021.2.3,Win32,60.04202942,611ceae6cc4047f40f350c53,611e07ecdcc96256ae8d5b80,611e71229f97de3eba06d7f4,
,,,,space,0.4176,,0,253,253,112,1,Q, , , , ,space,2500,2.5,Ben,001,2021-08-19_15h58.39.769,natb3,2021.2.3,Win32,60.04202942,611ceae6cc4047f40f350c53,611e07ecdcc96256ae8d5b80,611e71229f97de3eba06d7f4,
,,,,space,0.3534,,0,254,254,227,1,T, , , , ,space,1500,1.5,Ben,001,2021-08-19_15h58.39.769,natb3,2021.2.3,Win32,60.04202942,611ceae6cc4047f40f350c53,611e07ecdcc96256ae8d5b80,611e71229f97de3eba06d7f4,
,,,,space,0.3968,,0,255,255,269,1,A, , , , ,space,2500,2.5,Ben,001,2021-08-19_15h58.39.769,natb3,2021.2.3,Win32,60.04202942,611ceae6cc4047f40f350c53,611e07ecdcc96256ae8d5b80,611e71229f97de3eba06d7f4,
,,,,space,0.3859,,0,256,256,87,1,H, , , , ,space,1500,1.5,Ben,001,2021-08-19_15h58.39.769,natb3,2021.2.3,Win32,60.04202942,611ceae6cc4047f40f350c53,611e07ecdcc96256ae8d5b80,611e71229f97de3eba06d7f4,
,,,,space,0.3325,,0,257,257,40,1,T, , , , ,space,1500,1.5,Ben,001,2021-08-19_15h58.39.769,natb3,2021.2.3,Win32,60.04202942,611ceae6cc4047f40f350c53,611e07ecdcc96256ae8d5b80,611e71229f97de3eba06d7f4,
,,,,space,0.3167,,0,258,258,242,1,H, , , , ,space,2500,2.5,Ben,001,2021-08-19_15h58.39.769,natb3,2021.2.3,Win32,60.04202942,611ceae6cc4047f40f350c53,611e07ecdcc96256ae8d5b80,611e71229f97de3eba06d7f4,
,,,,space,0.413,,0,259,259,212,1,Q, , , , ,space,2500,2.5,Ben,001,2021-08-19_15h58.39.769,natb3,2021.2.3,Win32,60.04202942,611ceae6cc4047f40f350c53,611e07ecdcc96256ae8d5b80,611e71229f97de3eba06d7f4,
,,,,space,0.369,,0,260,260,121,1,I, , , , ,space,2000,2,Ben,001,2021-08-19_15h58.39.769,natb3,2021.2.3,Win32,60.04202942,611ceae6cc4047f40f350c53,611e07ecdcc96256ae8d5b80,611e71229f97de3eba06d7f4,
,,,,space,0.3564,,0,261,261,165,1,J, , , , ,space,2500,2.5,Ben,001,2021-08-19_15h58.39.769,natb3,2021.2.3,Win32,60.04202942,611ceae6cc4047f40f350c53,611e07ecdcc96256ae8d5b80,611e71229f97de3eba06d7f4,
,,,,space,0.3375,,0,262,262,208,1,B, , , , ,space,1500,1.5,Ben,001,2021-08-19_15h58.39.769,natb3,2021.2.3,Win32,60.04202942,611ceae6cc4047f40f350c53,611e07ecdcc96256ae8d5b80,611e71229f97de3eba06d7f4,
,,,,space,0.3755,,0,263,263,238,1,D, , , , ,space,1500,1.5,Ben,001,2021-08-19_15h58.39.769,natb3,2021.2.3,Win32,60.04202942,611ceae6cc4047f40f350c53,611e07ecdcc96256ae8d5b80,611e71229f97de3eba06d7f4,
,,,,space,0.4023,,0,264,264,88,1,J, , , , ,space,2500,2.5,Ben,001,2021-08-19_15h58.39.769,natb3,2021.2.3,Win32,60.04202942,611ceae6cc4047f40f350c53,611e07ecdcc96256ae8d5b80,611e71229f97de3eba06d7f4,
,,,,space,0.3508,,0,265,265,73,1,Y, , , , ,space,2000,2,Ben,001,2021-08-19_15h58.39.769,natb3,2021.2.3,Win32,60.04202942,611ceae6cc4047f40f350c53,611e07ecdcc96256ae8d5b80,611e71229f97de3eba06d7f4,
,,,,space,0.3691,,0,266,266,210,1,M, , , , ,space,1500,1.5,Ben,001,2021-08-19_15h58.39.769,natb3,2021.2.3,Win32,60.04202942,611ceae6cc4047f40f350c53,611e07ecdcc96256ae8d5b80,611e71229f97de3eba06d7f4,
,,,,,,,0,267,267,268,1,X,6, ,3, ,,2500,2.5,Ben,001,2021-08-19_15h58.39.769,natb3,2021.2.3,Win32,60.04202942,611ceae6cc4047f40f350c53,611e07ecdcc96256ae8d5b80,611e71229f97de3eba06d7f4,
,,,,,,,0,268,268,166,1,X, , , , ,,2000,2,Ben,001,2021-08-19_15h58.39.769,natb3,2021.2.3,Win32,60.04202942,611ceae6cc4047f40f350c53,611e07ecdcc96256ae8d5b80,611e71229f97de3eba06d7f4,
,,,,space,0.3585,,0,269,269,184,1,T, , , , ,space,2000,2,Ben,001,2021-08-19_15h58.39.769,natb3,2021.2.3,Win32,60.04202942,611ceae6cc4047f40f350c53,611e07ecdcc96256ae8d5b80,611e71229f97de3eba06d7f4,
,,,,space,0.4065,,0,270,270,1,1,W, , , , ,space,2000,2,Ben,001,2021-08-19_15h58.39.769,natb3,2021.2.3,Win32,60.04202942,611ceae6cc4047f40f350c53,611e07ecdcc96256ae8d5b80,611e71229f97de3eba06d7f4,
,,,,,,,0,271,271,213,1,X, , , , ,,2500,2.5,Ben,001,2021-08-19_15h58.39.769,natb3,2021.2.3,Win32,60.04202942,611ceae6cc4047f40f350c53,611e07ecdcc96256ae8d5b80,611e71229f97de3eba06d7f4,
,,,,,,,0,272,272,187,1,X, ,3,7,4,,1500,1.5,Ben,001,2021-08-19_15h58.39.769,natb3,2021.2.3,Win32,60.04202942,611ceae6cc4047f40f350c53,611e07ecdcc96256ae8d5b80,611e71229f97de3eba06d7f4,
,,,,space,0.3083,,0,273,273,258,1,E, , , , ,space,1500,1.5,Ben,001,2021-08-19_15h58.39.769,natb3,2021.2.3,Win32,60.04202942,611ceae6cc4047f40f350c53,611e07ecdcc96256ae8d5b80,611e71229f97de3eba06d7f4,
,,,,space,0.3603,,0,274,274,16,1,D, , , , ,space,1500,1.5,Ben,001,2021-08-19_15h58.39.769,natb3,2021.2.3,Win32,60.04202942,611ceae6cc4047f40f350c53,611e07ecdcc96256ae8d5b80,611e71229f97de3eba06d7f4,
,,,,space,0.3568,,0,275,275,244,1,J, , , , ,space,1500,1.5,Ben,001,2021-08-19_15h58.39.769,natb3,2021.2.3,Win32,60.04202942,611ceae6cc4047f40f350c53,611e07ecdcc96256ae8d5b80,611e71229f97de3eba06d7f4,
,,,,space,0.3084,,0,276,276,83,1,D, , , , ,space,2000,2,Ben,001,2021-08-19_15h58.39.769,natb3,2021.2.3,Win32,60.04202942,611ceae6cc4047f40f350c53,611e07ecdcc96256ae8d5b80,611e71229f97de3eba06d7f4,
,,,,space,0.3566,,0,277,277,64,1,N, , , , ,space,2000,2,Ben,001,2021-08-19_15h58.39.769,natb3,2021.2.3,Win32,60.04202942,611ceae6cc4047f40f350c53,611e07ecdcc96256ae8d5b80,611e71229f97de3eba06d7f4,
,,,,space,0.3676,,0,278,278,256,1,Q, , , , ,space,2000,2,Ben,001,2021-08-19_15h58.39.769,natb3,2021.2.3,Win32,60.04202942,611ceae6cc4047f40f350c53,611e07ecdcc96256ae8d5b80,611e71229f97de3eba06d7f4,
,,,,space,0.368,,0,279,279,290,1,W, , , , ,space,1500,1.5,Ben,001,2021-08-19_15h58.39.769,natb3,2021.2.3,Win32,60.04202942,611ceae6cc4047f40f350c53,611e07ecdcc96256ae8d5b80,611e71229f97de3eba06d7f4,
,,,,space,0.3551,,0,280,280,80,1,A, , , , ,space,2000,2,Ben,001,2021-08-19_15h58.39.769,natb3,2021.2.3,Win32,60.04202942,611ceae6cc4047f40f350c53,611e07ecdcc96256ae8d5b80,611e71229f97de3eba06d7f4,
,,,,space,0.3466,,0,281,281,321,1,N, , , , ,space,2000,2,Ben,001,2021-08-19_15h58.39.769,natb3,2021.2.3,Win32,60.04202942,611ceae6cc4047f40f350c53,611e07ecdcc96256ae8d5b80,611e71229f97de3eba06d7f4,
,,,,,,,0,282,282,233,1,X, ,2, ,5,,1500,1.5,Ben,001,2021-08-19_15h58.39.769,natb3,2021.2.3,Win32,60.04202942,611ceae6cc4047f40f350c53,611e07ecdcc96256ae8d5b80,611e71229f97de3eba06d7f4,
,,,,space,0.3854,,0,283,283,309,1,H, , , , ,space,2500,2.5,Ben,001,2021-08-19_15h58.39.769,natb3,2021.2.3,Win32,60.04202942,611ceae6cc4047f40f350c53,611e07ecdcc96256ae8d5b80,611e71229f97de3eba06d7f4,
,,,,space,0.4228,,0,284,284,92,1,Z, , , , ,space,1500,1.5,Ben,001,2021-08-19_15h58.39.769,natb3,2021.2.3,Win32,60.04202942,611ceae6cc4047f40f350c53,611e07ecdcc96256ae8d5b80,611e71229f97de3eba06d7f4,
,,,,space,0.4011,,0,285,285,300,1,O, , , , ,space,2500,2.5,Ben,001,2021-08-19_15h58.39.769,natb3,2021.2.3,Win32,60.04202942,611ceae6cc4047f40f350c53,611e07ecdcc96256ae8d5b80,611e71229f97de3eba06d7f4,
,,,,space,0.4238,,0,286,286,34,1,Q, , , , ,space,2500,2.5,Ben,001,2021-08-19_15h58.39.769,natb3,2021.2.3,Win32,60.04202942,611ceae6cc4047f40f350c53,611e07ecdcc96256ae8d5b80,611e71229f97de3eba06d7f4,
,,,,space,0.3512,,0,287,287,319,1,V, , , , ,space,2000,2,Ben,001,2021-08-19_15h58.39.769,natb3,2021.2.3,Win32,60.04202942,611ceae6cc4047f40f350c53,611e07ecdcc96256ae8d5b80,611e71229f97de3eba06d7f4,
,,,,space,0.4017,,0,288,288,209,1,N, , , , ,space,2000,2,Ben,001,2021-08-19_15h58.39.769,natb3,2021.2.3,Win32,60.04202942,611ceae6cc4047f40f350c53,611e07ecdcc96256ae8d5b80,611e71229f97de3eba06d7f4,
,,,,space,0.3727,,0,289,289,315,1,X, , , , ,,2500,2.5,Ben,001,2021-08-19_15h58.39.769,natb3,2021.2.3,Win32,60.04202942,611ceae6cc4047f40f350c53,611e07ecdcc96256ae8d5b80,611e71229f97de3eba06d7f4,
,,,,space,0.3729,,0,290,290,164,1,H, , , , ,space,2500,2.5,Ben,001,2021-08-19_15h58.39.769,natb3,2021.2.3,Win32,60.04202942,611ceae6cc4047f40f350c53,611e07ecdcc96256ae8d5b80,611e71229f97de3eba06d7f4,
,,,,space,0.3849,,0,291,291,76,1,I, , , , ,space,2000,2,Ben,001,2021-08-19_15h58.39.769,natb3,2021.2.3,Win32,60.04202942,611ceae6cc4047f40f350c53,611e07ecdcc96256ae8d5b80,611e71229f97de3eba06d7f4,
,,,,space,0.3841,,0,292,292,250,1,V, , , , ,space,2000,2,Ben,001,2021-08-19_15h58.39.769,natb3,2021.2.3,Win32,60.04202942,611ceae6cc4047f40f350c53,611e07ecdcc96256ae8d5b80,611e71229f97de3eba06d7f4,
,,,,space,0.3284,,0,293,293,276,1,H, , , , ,space,2000,2,Ben,001,2021-08-19_15h58.39.769,natb3,2021.2.3,Win32,60.04202942,611ceae6cc4047f40f350c53,611e07ecdcc96256ae8d5b80,611e71229f97de3eba06d7f4,
,,,,space,0.3711,,0,294,294,314,1,L, , , , ,space,1500,1.5,Ben,001,2021-08-19_15h58.39.769,natb3,2021.2.3,Win32,60.04202942,611ceae6cc4047f40f350c53,611e07ecdcc96256ae8d5b80,611e71229f97de3eba06d7f4,
,,,,space,0.5021,,0,295,295,103,1,W, , , , ,space,2000,2,Ben,001,2021-08-19_15h58.39.769,natb3,2021.2.3,Win32,60.04202942,611ceae6cc4047f40f350c53,611e07ecdcc96256ae8d5b80,611e71229f97de3eba06d7f4,
,,,,space,0.3858,,0,296,296,38,1,R, , , , ,space,2500,2.5,Ben,001,2021-08-19_15h58.39.769,natb3,2021.2.3,Win32,60.04202942,611ceae6cc4047f40f350c53,611e07ecdcc96256ae8d5b80,611e71229f97de3eba06d7f4,
,,,,space,0.358,,0,297,297,266,1,O, , , , ,space,1500,1.5,Ben,001,2021-08-19_15h58.39.769,natb3,2021.2.3,Win32,60.04202942,611ceae6cc4047f40f350c53,611e07ecdcc96256ae8d5b80,611e71229f97de3eba06d7f4,
,,,,space,0.5296,,0,298,298,281,1,Z, , , , ,space,1500,1.5,Ben,001,2021-08-19_15h58.39.769,natb3,2021.2.3,Win32,60.04202942,611ceae6cc4047f40f350c53,611e07ecdcc96256ae8d5b80,611e71229f97de3eba06d7f4,
,,,,space,0.3344,,0,299,299,178,1,Q, , , , ,space,1500,1.5,Ben,001,2021-08-19_15h58.39.769,natb3,2021.2.3,Win32,60.04202942,611ceae6cc4047f40f350c53,611e07ecdcc96256ae8d5b80,611e71229f97de3eba06d7f4,
,,,,space,0.3569,,0,300,300,163,1,G, , , , ,space,2500,2.5,Ben,001,2021-08-19_15h58.39.769,natb3,2021.2.3,Win32,60.04202942,611ceae6cc4047f40f350c53,611e07ecdcc96256ae8d5b80,611e71229f97de3eba06d7f4,
,,,,space,0.3636,,0,301,301,125,1,X, , , , ,,2000,2,Ben,001,2021-08-19_15h58.39.769,natb3,2021.2.3,Win32,60.04202942,611ceae6cc4047f40f350c53,611e07ecdcc96256ae8d5b80,611e71229f97de3eba06d7f4,
,,,,space,0.3733,,0,302,302,306,1,D, , , , ,space,2000,2,Ben,001,2021-08-19_15h58.39.769,natb3,2021.2.3,Win32,60.04202942,611ceae6cc4047f40f350c53,611e07ecdcc96256ae8d5b80,611e71229f97de3eba06d7f4,
,,,,,,,0,303,303,46,1,X, , , , ,,2000,2,Ben,001,2021-08-19_15h58.39.769,natb3,2021.2.3,Win32,60.04202942,611ceae6cc4047f40f350c53,611e07ecdcc96256ae8d5b80,611e71229f97de3eba06d7f4,
,,,,,,,0,304,304,179,1,X, ,9, ,2,,1500,1.5,Ben,001,2021-08-19_15h58.39.769,natb3,2021.2.3,Win32,60.04202942,611ceae6cc4047f40f350c53,611e07ecdcc96256ae8d5b80,611e71229f97de3eba06d7f4,
,,,,space,0.4203,,0,305,305,333,1,I, , , , ,space,1500,1.5,Ben,001,2021-08-19_15h58.39.769,natb3,2021.2.3,Win32,60.04202942,611ceae6cc4047f40f350c53,611e07ecdcc96256ae8d5b80,611e71229f97de3eba06d7f4,
,,,,space,0.4592,,0,306,306,48,1,A, , , , ,space,2500,2.5,Ben,001,2021-08-19_15h58.39.769,natb3,2021.2.3,Win32,60.04202942,611ceae6cc4047f40f350c53,611e07ecdcc96256ae8d5b80,611e71229f97de3eba06d7f4,
,,,,space,0.535,,0,307,307,55,1,H, , , , ,space,2500,2.5,Ben,001,2021-08-19_15h58.39.769,natb3,2021.2.3,Win32,60.04202942,611ceae6cc4047f40f350c53,611e07ecdcc96256ae8d5b80,611e71229f97de3eba06d7f4,
,,,,space,0.436,,0,308,308,53,1,G, , , , ,space,2500,2.5,Ben,001,2021-08-19_15h58.39.769,natb3,2021.2.3,Win32,60.04202942,611ceae6cc4047f40f350c53,611e07ecdcc96256ae8d5b80,611e71229f97de3eba06d7f4,
,,,,space,0.3687,,0,309,309,194,1,D, , , , ,space,2000,2,Ben,001,2021-08-19_15h58.39.769,natb3,2021.2.3,Win32,60.04202942,611ceae6cc4047f40f350c53,611e07ecdcc96256ae8d5b80,611e71229f97de3eba06d7f4,
,,,,space,0.4049,,0,310,310,176,1,N, , , , ,space,1500,1.5,Ben,001,2021-08-19_15h58.39.769,natb3,2021.2.3,Win32,60.04202942,611ceae6cc4047f40f350c53,611e07ecdcc96256ae8d5b80,611e71229f97de3eba06d7f4,
,,,,space,0.3842,,0,311,311,50,1,D, , , , ,space,1500,1.5,Ben,001,2021-08-19_15h58.39.769,natb3,2021.2.3,Win32,60.04202942,611ceae6cc4047f40f350c53,611e07ecdcc96256ae8d5b80,611e71229f97de3eba06d7f4,
,,,,,,,0,312,312,239,1,X, , , , ,,2000,2,Ben,001,2021-08-19_15h58.39.769,natb3,2021.2.3,Win32,60.04202942,611ceae6cc4047f40f350c53,611e07ecdcc96256ae8d5b80,611e71229f97de3eba06d7f4,
,,,,,,,0,313,313,23,1,X,1, ,5, ,,2000,2,Ben,001,2021-08-19_15h58.39.769,natb3,2021.2.3,Win32,60.04202942,611ceae6cc4047f40f350c53,611e07ecdcc96256ae8d5b80,611e71229f97de3eba06d7f4,
,,,,,,,0,314,314,15,1,X, , , , ,,1500,1.5,Ben,001,2021-08-19_15h58.39.769,natb3,2021.2.3,Win32,60.04202942,611ceae6cc4047f40f350c53,611e07ecdcc96256ae8d5b80,611e71229f97de3eba06d7f4,
,,,,space,0.3693,,0,315,315,63,1,B, , , , ,space,2000,2,Ben,001,2021-08-19_15h58.39.769,natb3,2021.2.3,Win32,60.04202942,611ceae6cc4047f40f350c53,611e07ecdcc96256ae8d5b80,611e71229f97de3eba06d7f4,
,,,,space,0.3856,,0,316,316,241,1,G, , , , ,space,2500,2.5,Ben,001,2021-08-19_15h58.39.769,natb3,2021.2.3,Win32,60.04202942,611ceae6cc4047f40f350c53,611e07ecdcc96256ae8d5b80,611e71229f97de3eba06d7f4,
,,,,space,0.4013,,0,317,317,173,1,V, , , , ,space,1500,1.5,Ben,001,2021-08-19_15h58.39.769,natb3,2021.2.3,Win32,60.04202942,611ceae6cc4047f40f350c53,611e07ecdcc96256ae8d5b80,611e71229f97de3eba06d7f4,
,,,,space,0.369,,0,318,318,132,1,H, , , , ,space,2500,2.5,Ben,001,2021-08-19_15h58.39.769,natb3,2021.2.3,Win32,60.04202942,611ceae6cc4047f40f350c53,611e07ecdcc96256ae8d5b80,611e71229f97de3eba06d7f4,
,,,,space,0.4204,,0,319,319,196,1,F, , , , ,space,1500,1.5,Ben,001,2021-08-19_15h58.39.769,natb3,2021.2.3,Win32,60.04202942,611ceae6cc4047f40f350c53,611e07ecdcc96256ae8d5b80,611e71229f97de3eba06d7f4,
,,,,space,0.5093,,0,320,320,245,1,K, , , , ,space,2000,2,Ben,001,2021-08-19_15h58.39.769,natb3,2021.2.3,Win32,60.04202942,611ceae6cc4047f40f350c53,611e07ecdcc96256ae8d5b80,611e71229f97de3eba06d7f4,
,,,,space,0.4677,,0,321,321,45,1,O, , , , ,space,2000,2,Ben,001,2021-08-19_15h58.39.769,natb3,2021.2.3,Win32,60.04202942,611ceae6cc4047f40f350c53,611e07ecdcc96256ae8d5b80,611e71229f97de3eba06d7f4,
,,,,space,0.6098,,0,322,322,177,1,M, , , , ,space,2500,2.5,Ben,001,2021-08-19_15h58.39.769,natb3,2021.2.3,Win32,60.04202942,611ceae6cc4047f40f350c53,611e07ecdcc96256ae8d5b80,611e71229f97de3eba06d7f4,
,,,,space,0.6835,,0,323,323,61,1,C, , , , ,space,2000,2,Ben,001,2021-08-19_15h58.39.769,natb3,2021.2.3,Win32,60.04202942,611ceae6cc4047f40f350c53,611e07ecdcc96256ae8d5b80,611e71229f97de3eba06d7f4,
,,,,space,0.4321,,0,324,324,293,1,R, , , , ,space,2500,2.5,Ben,001,2021-08-19_15h58.39.769,natb3,2021.2.3,Win32,60.04202942,611ceae6cc4047f40f350c53,611e07ecdcc96256ae8d5b80,611e71229f97de3eba06d7f4,
,,,,,,,0,325,325,122,1,X,1, , ,8,,1500,1.5,Ben,001,2021-08-19_15h58.39.769,natb3,2021.2.3,Win32,60.04202942,611ceae6cc4047f40f350c53,611e07ecdcc96256ae8d5b80,611e71229f97de3eba06d7f4,
,,,,space,0.4014,,0,326,326,188,1,I, , , , ,space,2500,2.5,Ben,001,2021-08-19_15h58.39.769,natb3,2021.2.3,Win32,60.04202942,611ceae6cc4047f40f350c53,611e07ecdcc96256ae8d5b80,611e71229f97de3eba06d7f4,
,,,,,,,0,327,327,259,1,X,8, , ,3,,2500,2.5,Ben,001,2021-08-19_15h58.39.769,natb3,2021.2.3,Win32,60.04202942,611ceae6cc4047f40f350c53,611e07ecdcc96256ae8d5b80,611e71229f97de3eba06d7f4,
,,,,,,,0,328,328,211,1,X, , , , ,,2500,2.5,Ben,001,2021-08-19_15h58.39.769,natb3,2021.2.3,Win32,60.04202942,611ceae6cc4047f40f350c53,611e07ecdcc96256ae8d5b80,611e71229f97de3eba06d7f4,
,,,,space,0.4197,,0,329,329,134,1,J, , , , ,space,2000,2,Ben,001,2021-08-19_15h58.39.769,natb3,2021.2.3,Win32,60.04202942,611ceae6cc4047f40f350c53,611e07ecdcc96256ae8d5b80,611e71229f97de3eba06d7f4,
,,,,,,,0,330,330,12,1,X, , , , ,,1500,1.5,Ben,001,2021-08-19_15h58.39.769,natb3,2021.2.3,Win32,60.04202942,611ceae6cc4047f40f350c53,611e07ecdcc96256ae8d5b80,611e71229f97de3eba06d7f4,
,,,,space,0.3934,,0,331,331,251,1,B, , , , ,space,1500,1.5,Ben,001,2021-08-19_15h58.39.769,natb3,2021.2.3,Win32,60.04202942,611ceae6cc4047f40f350c53,611e07ecdcc96256ae8d5b80,611e71229f97de3eba06d7f4,
,,,,space,0.4193,,0,332,332,234,1,P, , , , ,space,2000,2,Ben,001,2021-08-19_15h58.39.769,natb3,2021.2.3,Win32,60.04202942,611ceae6cc4047f40f350c53,611e07ecdcc96256ae8d5b80,611e71229f97de3eba06d7f4,
,,,,space,0.4844,,0,333,333,36,1,W, , , , ,space,2000,2,Ben,001,2021-08-19_15h58.39.769,natb3,2021.2.3,Win32,60.04202942,611ceae6cc4047f40f350c53,611e07ecdcc96256ae8d5b80,611e71229f97de3eba06d7f4,
,,,,space,0.3959,,0,334,334,11,1,P, , , , ,space,2500,2.5,Ben,001,2021-08-19_15h58.39.769,natb3,2021.2.3,Win32,60.04202942,611ceae6cc4047f40f350c53,611e07ecdcc96256ae8d5b80,611e71229f97de3eba06d7f4,
,,,,space,0.4118,,0,335,335,217,1,T, , , , ,space,2500,2.5,Ben,001,2021-08-19_15h58.39.769,natb3,2021.2.3,Win32,60.04202942,611ceae6cc4047f40f350c53,611e07ecdcc96256ae8d5b80,611e71229f97de3eba06d7f4,
