key_resp_2.keys,key_resp_2.rt,key_resp_3.keys,key_resp_3.rt,key_resp.keys,key_resp_4.keys,trials.thisRepN,trials.thisTrialN,trials.thisN,trials.thisIndex,trials.ran,stimulus,distractor1,distractor2,distractor3,distractor4,CorrAns,isi_duration,isi_dur_in_seconds,participant,session,date,expName,psychopyVersion,OS,frameRate,PROLIFIC_PID,STUDY_ID,SESSION_ID,key_resp.rt,key_resp_4.rt
return,34.5904,space,30.1971,,,0,0,0,91,1,L, , , , ,space,2000,2,ben,001,2021-08-19_15h59.46.137,natb3,2021.2.3,Win32,60.07449237,60950e597e2a55a2f6b45bd4,611e07ecdcc96256ae8d5b80,611e71a809d3c2d70610d6e8,,
,,,,space,,0,1,1,150,1,T, , , , ,space,2500,2.5,ben,001,2021-08-19_15h59.46.137,natb3,2021.2.3,Win32,60.07449237,60950e597e2a55a2f6b45bd4,611e07ecdcc96256ae8d5b80,611e71a809d3c2d70610d6e8,0.5071,
,,,,space,,0,2,2,111,1,O, , , , ,space,2000,2,ben,001,2021-08-19_15h59.46.137,natb3,2021.2.3,Win32,60.07449237,60950e597e2a55a2f6b45bd4,611e07ecdcc96256ae8d5b80,611e71a809d3c2d70610d6e8,0.4581,
,,,,space,,0,3,3,59,1,Z, , , , ,space,2000,2,ben,001,2021-08-19_15h59.46.137,natb3,2021.2.3,Win32,60.07449237,60950e597e2a55a2f6b45bd4,611e07ecdcc96256ae8d5b80,611e71a809d3c2d70610d6e8,0.2987,
,,,,,,0,4,4,255,1,X, , , , ,,1500,1.5,ben,001,2021-08-19_15h59.46.137,natb3,2021.2.3,Win32,60.07449237,60950e597e2a55a2f6b45bd4,611e07ecdcc96256ae8d5b80,611e71a809d3c2d70610d6e8,,
,,,,space,,0,5,5,17,1,F, , , , ,space,2500,2.5,ben,001,2021-08-19_15h59.46.137,natb3,2021.2.3,Win32,60.07449237,60950e597e2a55a2f6b45bd4,611e07ecdcc96256ae8d5b80,611e71a809d3c2d70610d6e8,0.3637,
,,,,space,,0,6,6,68,1,W, , , , ,space,2500,2.5,ben,001,2021-08-19_15h59.46.137,natb3,2021.2.3,Win32,60.07449237,60950e597e2a55a2f6b45bd4,611e07ecdcc96256ae8d5b80,611e71a809d3c2d70610d6e8,0.3304,
,,,,space,,0,7,7,201,1,K, , , , ,space,1500,1.5,ben,001,2021-08-19_15h59.46.137,natb3,2021.2.3,Win32,60.07449237,60950e597e2a55a2f6b45bd4,611e07ecdcc96256ae8d5b80,611e71a809d3c2d70610d6e8,0.7978,
,,,,space,,0,8,8,272,1,D, , , , ,space,2000,2,ben,001,2021-08-19_15h59.46.137,natb3,2021.2.3,Win32,60.07449237,60950e597e2a55a2f6b45bd4,611e07ecdcc96256ae8d5b80,611e71a809d3c2d70610d6e8,0.3868,
,,,,space,,0,9,9,296,1,Y, , , , ,space,2500,2.5,ben,001,2021-08-19_15h59.46.137,natb3,2021.2.3,Win32,60.07449237,60950e597e2a55a2f6b45bd4,611e07ecdcc96256ae8d5b80,611e71a809d3c2d70610d6e8,0.4956,
,,,,space,,0,10,10,206,1,V, , , , ,space,2000,2,ben,001,2021-08-19_15h59.46.137,natb3,2021.2.3,Win32,60.07449237,60950e597e2a55a2f6b45bd4,611e07ecdcc96256ae8d5b80,611e71a809d3c2d70610d6e8,0.4417,
,,,,space,,0,11,11,102,1,X, ,6, , ,,1500,1.5,ben,001,2021-08-19_15h59.46.137,natb3,2021.2.3,Win32,60.07449237,60950e597e2a55a2f6b45bd4,611e07ecdcc96256ae8d5b80,611e71a809d3c2d70610d6e8,0.6257,
,,,,space,,0,12,12,230,1,U, , , , ,space,1500,1.5,ben,001,2021-08-19_15h59.46.137,natb3,2021.2.3,Win32,60.07449237,60950e597e2a55a2f6b45bd4,611e07ecdcc96256ae8d5b80,611e71a809d3c2d70610d6e8,0.8448,
,,,,space,,0,13,13,135,1,K, , , , ,space,1500,1.5,ben,001,2021-08-19_15h59.46.137,natb3,2021.2.3,Win32,60.07449237,60950e597e2a55a2f6b45bd4,611e07ecdcc96256ae8d5b80,611e71a809d3c2d70610d6e8,0.4933,
,,,,space,,0,14,14,283,1,C, , , , ,space,1500,1.5,ben,001,2021-08-19_15h59.46.137,natb3,2021.2.3,Win32,60.07449237,60950e597e2a55a2f6b45bd4,611e07ecdcc96256ae8d5b80,611e71a809d3c2d70610d6e8,0.4871,
,,,,space,,0,15,15,49,1,S, , , , ,space,1500,1.5,ben,001,2021-08-19_15h59.46.137,natb3,2021.2.3,Win32,60.07449237,60950e597e2a55a2f6b45bd4,611e07ecdcc96256ae8d5b80,611e71a809d3c2d70610d6e8,0.525,
,,,,space,,0,16,16,217,1,T, , , , ,space,2500,2.5,ben,001,2021-08-19_15h59.46.137,natb3,2021.2.3,Win32,60.07449237,60950e597e2a55a2f6b45bd4,611e07ecdcc96256ae8d5b80,611e71a809d3c2d70610d6e8,0.6369,
,,,,space,,0,17,17,40,1,T, , , , ,space,1500,1.5,ben,001,2021-08-19_15h59.46.137,natb3,2021.2.3,Win32,60.07449237,60950e597e2a55a2f6b45bd4,611e07ecdcc96256ae8d5b80,611e71a809d3c2d70610d6e8,0.5673,
,,,,,,0,18,18,203,1,X, , , , ,,2500,2.5,ben,001,2021-08-19_15h59.46.137,natb3,2021.2.3,Win32,60.07449237,60950e597e2a55a2f6b45bd4,611e07ecdcc96256ae8d5b80,611e71a809d3c2d70610d6e8,,
,,,,space,,0,19,19,238,1,D, , , , ,space,1500,1.5,ben,001,2021-08-19_15h59.46.137,natb3,2021.2.3,Win32,60.07449237,60950e597e2a55a2f6b45bd4,611e07ecdcc96256ae8d5b80,611e71a809d3c2d70610d6e8,0.4642,
,,,,space,,0,20,20,155,1,O, , , , ,space,1500,1.5,ben,001,2021-08-19_15h59.46.137,natb3,2021.2.3,Win32,60.07449237,60950e597e2a55a2f6b45bd4,611e07ecdcc96256ae8d5b80,611e71a809d3c2d70610d6e8,0.4651,
,,,,space,,0,21,21,227,1,T, , , , ,space,1500,1.5,ben,001,2021-08-19_15h59.46.137,natb3,2021.2.3,Win32,60.07449237,60950e597e2a55a2f6b45bd4,611e07ecdcc96256ae8d5b80,611e71a809d3c2d70610d6e8,0.6137,
,,,,space,,0,22,22,75,1,U, , , , ,space,1500,1.5,ben,001,2021-08-19_15h59.46.137,natb3,2021.2.3,Win32,60.07449237,60950e597e2a55a2f6b45bd4,611e07ecdcc96256ae8d5b80,611e71a809d3c2d70610d6e8,0.6395,
,,,,space,,0,23,23,154,1,I, , , , ,space,2500,2.5,ben,001,2021-08-19_15h59.46.137,natb3,2021.2.3,Win32,60.07449237,60950e597e2a55a2f6b45bd4,611e07ecdcc96256ae8d5b80,611e71a809d3c2d70610d6e8,0.4928,
,,,,space,,0,24,24,183,1,R, , , , ,space,1500,1.5,ben,001,2021-08-19_15h59.46.137,natb3,2021.2.3,Win32,60.07449237,60950e597e2a55a2f6b45bd4,611e07ecdcc96256ae8d5b80,611e71a809d3c2d70610d6e8,0.4673,
,,,,,,0,25,25,69,1,X, , , , ,,1500,1.5,ben,001,2021-08-19_15h59.46.137,natb3,2021.2.3,Win32,60.07449237,60950e597e2a55a2f6b45bd4,611e07ecdcc96256ae8d5b80,611e71a809d3c2d70610d6e8,,
,,,,space,,0,26,26,36,1,W, , , , ,space,2000,2,ben,001,2021-08-19_15h59.46.137,natb3,2021.2.3,Win32,60.07449237,60950e597e2a55a2f6b45bd4,611e07ecdcc96256ae8d5b80,611e71a809d3c2d70610d6e8,0.4806,
,,,,space,,0,27,27,266,1,O, , , , ,space,1500,1.5,ben,001,2021-08-19_15h59.46.137,natb3,2021.2.3,Win32,60.07449237,60950e597e2a55a2f6b45bd4,611e07ecdcc96256ae8d5b80,611e71a809d3c2d70610d6e8,0.6553,
,,,,space,,0,28,28,87,1,H, , , , ,space,1500,1.5,ben,001,2021-08-19_15h59.46.137,natb3,2021.2.3,Win32,60.07449237,60950e597e2a55a2f6b45bd4,611e07ecdcc96256ae8d5b80,611e71a809d3c2d70610d6e8,0.5874,
,,,,space,,0,29,29,124,1,P, , , , ,space,2000,2,ben,001,2021-08-19_15h59.46.137,natb3,2021.2.3,Win32,60.07449237,60950e597e2a55a2f6b45bd4,611e07ecdcc96256ae8d5b80,611e71a809d3c2d70610d6e8,0.4838,
,,,,space,,0,30,30,86,1,G, , , , ,space,2000,2,ben,001,2021-08-19_15h59.46.137,natb3,2021.2.3,Win32,60.07449237,60950e597e2a55a2f6b45bd4,611e07ecdcc96256ae8d5b80,611e71a809d3c2d70610d6e8,0.5756,
,,,,space,,0,31,31,57,1,K, , , , ,space,2500,2.5,ben,001,2021-08-19_15h59.46.137,natb3,2021.2.3,Win32,60.07449237,60950e597e2a55a2f6b45bd4,611e07ecdcc96256ae8d5b80,611e71a809d3c2d70610d6e8,0.7259,
,,,,space,,0,32,32,152,1,U, , , , ,space,2000,2,ben,001,2021-08-19_15h59.46.137,natb3,2021.2.3,Win32,60.07449237,60950e597e2a55a2f6b45bd4,611e07ecdcc96256ae8d5b80,611e71a809d3c2d70610d6e8,0.7363,
,,,,space,,0,33,33,34,1,Q, , , , ,space,2500,2.5,ben,001,2021-08-19_15h59.46.137,natb3,2021.2.3,Win32,60.07449237,60950e597e2a55a2f6b45bd4,611e07ecdcc96256ae8d5b80,611e71a809d3c2d70610d6e8,0.4992,
,,,,space,,0,34,34,316,1,Z, , , , ,space,1500,1.5,ben,001,2021-08-19_15h59.46.137,natb3,2021.2.3,Win32,60.07449237,60950e597e2a55a2f6b45bd4,611e07ecdcc96256ae8d5b80,611e71a809d3c2d70610d6e8,0.7906,
,,,,,,0,35,35,32,1,M, , , , ,space,1500,1.5,ben,001,2021-08-19_15h59.46.137,natb3,2021.2.3,Win32,60.07449237,60950e597e2a55a2f6b45bd4,611e07ecdcc96256ae8d5b80,611e71a809d3c2d70610d6e8,,
,,,,space,,0,36,36,234,1,P, , , , ,space,2000,2,ben,001,2021-08-19_15h59.46.137,natb3,2021.2.3,Win32,60.07449237,60950e597e2a55a2f6b45bd4,611e07ecdcc96256ae8d5b80,611e71a809d3c2d70610d6e8,0.5187,
,,,,space,,0,37,37,109,1,U, , , , ,space,1500,1.5,ben,001,2021-08-19_15h59.46.137,natb3,2021.2.3,Win32,60.07449237,60950e597e2a55a2f6b45bd4,611e07ecdcc96256ae8d5b80,611e71a809d3c2d70610d6e8,0.5731,
,,,,space,,0,38,38,190,1,P, , , , ,space,2000,2,ben,001,2021-08-19_15h59.46.137,natb3,2021.2.3,Win32,60.07449237,60950e597e2a55a2f6b45bd4,611e07ecdcc96256ae8d5b80,611e71a809d3c2d70610d6e8,0.7308,
,,,,space,,0,39,39,204,1,Z, , , , ,space,2000,2,ben,001,2021-08-19_15h59.46.137,natb3,2021.2.3,Win32,60.07449237,60950e597e2a55a2f6b45bd4,611e07ecdcc96256ae8d5b80,611e71a809d3c2d70610d6e8,0.6213,
,,,,space,,0,40,40,115,1,R, , , , ,space,1500,1.5,ben,001,2021-08-19_15h59.46.137,natb3,2021.2.3,Win32,60.07449237,60950e597e2a55a2f6b45bd4,611e07ecdcc96256ae8d5b80,611e71a809d3c2d70610d6e8,0.5978,
,,,,,,0,41,41,84,1,X, , , , ,,2000,2,ben,001,2021-08-19_15h59.46.137,natb3,2021.2.3,Win32,60.07449237,60950e597e2a55a2f6b45bd4,611e07ecdcc96256ae8d5b80,611e71a809d3c2d70610d6e8,,
,,,,space,,0,42,42,224,1,W, , , , ,space,1500,1.5,ben,001,2021-08-19_15h59.46.137,natb3,2021.2.3,Win32,60.07449237,60950e597e2a55a2f6b45bd4,611e07ecdcc96256ae8d5b80,611e71a809d3c2d70610d6e8,0.8382,
,,,,,,0,43,43,141,1,X,1, ,4,6,,1500,1.5,ben,001,2021-08-19_15h59.46.137,natb3,2021.2.3,Win32,60.07449237,60950e597e2a55a2f6b45bd4,611e07ecdcc96256ae8d5b80,611e71a809d3c2d70610d6e8,,
,,,,space,,0,44,44,294,1,T, , , , ,space,2000,2,ben,001,2021-08-19_15h59.46.137,natb3,2021.2.3,Win32,60.07449237,60950e597e2a55a2f6b45bd4,611e07ecdcc96256ae8d5b80,611e71a809d3c2d70610d6e8,0.6772,
,,,,,,0,45,45,233,1,X, ,2, ,5,,1500,1.5,ben,001,2021-08-19_15h59.46.137,natb3,2021.2.3,Win32,60.07449237,60950e597e2a55a2f6b45bd4,611e07ecdcc96256ae8d5b80,611e71a809d3c2d70610d6e8,,
,,,,space,,0,46,46,90,1,K, , , , ,space,2000,2,ben,001,2021-08-19_15h59.46.137,natb3,2021.2.3,Win32,60.07449237,60950e597e2a55a2f6b45bd4,611e07ecdcc96256ae8d5b80,611e71a809d3c2d70610d6e8,0.7474,
,,,,,,0,47,47,243,1,X, , , , ,,2500,2.5,ben,001,2021-08-19_15h59.46.137,natb3,2021.2.3,Win32,60.07449237,60950e597e2a55a2f6b45bd4,611e07ecdcc96256ae8d5b80,611e71a809d3c2d70610d6e8,,
,,,,space,,0,48,48,262,1,Y, , , , ,space,2500,2.5,ben,001,2021-08-19_15h59.46.137,natb3,2021.2.3,Win32,60.07449237,60950e597e2a55a2f6b45bd4,611e07ecdcc96256ae8d5b80,611e71a809d3c2d70610d6e8,0.4411,
,,,,,,0,49,49,282,1,X, , , , ,,2500,2.5,ben,001,2021-08-19_15h59.46.137,natb3,2021.2.3,Win32,60.07449237,60950e597e2a55a2f6b45bd4,611e07ecdcc96256ae8d5b80,611e71a809d3c2d70610d6e8,,
,,,,,,0,50,50,60,1,X,7,3,5, ,,1500,1.5,ben,001,2021-08-19_15h59.46.137,natb3,2021.2.3,Win32,60.07449237,60950e597e2a55a2f6b45bd4,611e07ecdcc96256ae8d5b80,611e71a809d3c2d70610d6e8,,
,,,,,,0,51,51,305,1,X, , , , ,,1500,1.5,ben,001,2021-08-19_15h59.46.137,natb3,2021.2.3,Win32,60.07449237,60950e597e2a55a2f6b45bd4,611e07ecdcc96256ae8d5b80,611e71a809d3c2d70610d6e8,,
,,,,space,,0,52,52,48,1,A, , , , ,space,2500,2.5,ben,001,2021-08-19_15h59.46.137,natb3,2021.2.3,Win32,60.07449237,60950e597e2a55a2f6b45bd4,611e07ecdcc96256ae8d5b80,611e71a809d3c2d70610d6e8,0.4995,
,,,,space,,0,53,53,250,1,V, , , , ,space,2000,2,ben,001,2021-08-19_15h59.46.137,natb3,2021.2.3,Win32,60.07449237,60950e597e2a55a2f6b45bd4,611e07ecdcc96256ae8d5b80,611e71a809d3c2d70610d6e8,0.5009,
,,,,space,,0,54,54,228,1,Y, , , , ,space,2000,2,ben,001,2021-08-19_15h59.46.137,natb3,2021.2.3,Win32,60.07449237,60950e597e2a55a2f6b45bd4,611e07ecdcc96256ae8d5b80,611e71a809d3c2d70610d6e8,0.6929,
,,,,space,,0,55,55,278,1,J, , , , ,space,2000,2,ben,001,2021-08-19_15h59.46.137,natb3,2021.2.3,Win32,60.07449237,60950e597e2a55a2f6b45bd4,611e07ecdcc96256ae8d5b80,611e71a809d3c2d70610d6e8,0.4543,
,,,,,,0,56,56,153,1,X,4,7, ,6,,2000,2,ben,001,2021-08-19_15h59.46.137,natb3,2021.2.3,Win32,60.07449237,60950e597e2a55a2f6b45bd4,611e07ecdcc96256ae8d5b80,611e71a809d3c2d70610d6e8,,
,,,,space,,0,57,57,188,1,I, , , , ,space,2500,2.5,ben,001,2021-08-19_15h59.46.137,natb3,2021.2.3,Win32,60.07449237,60950e597e2a55a2f6b45bd4,611e07ecdcc96256ae8d5b80,611e71a809d3c2d70610d6e8,0.486,
,,,,space,,0,58,58,143,1,M, , , , ,space,2500,2.5,ben,001,2021-08-19_15h59.46.137,natb3,2021.2.3,Win32,60.07449237,60950e597e2a55a2f6b45bd4,611e07ecdcc96256ae8d5b80,611e71a809d3c2d70610d6e8,0.7706,
,,,,space,,0,59,59,215,1,E, , , , ,space,2500,2.5,ben,001,2021-08-19_15h59.46.137,natb3,2021.2.3,Win32,60.07449237,60950e597e2a55a2f6b45bd4,611e07ecdcc96256ae8d5b80,611e71a809d3c2d70610d6e8,0.418,
,,,,space,,0,60,60,28,1,V, , , , ,space,1500,1.5,ben,001,2021-08-19_15h59.46.137,natb3,2021.2.3,Win32,60.07449237,60950e597e2a55a2f6b45bd4,611e07ecdcc96256ae8d5b80,611e71a809d3c2d70610d6e8,0.6519,
,,,,space,,0,61,61,16,1,D, , , , ,space,1500,1.5,ben,001,2021-08-19_15h59.46.137,natb3,2021.2.3,Win32,60.07449237,60950e597e2a55a2f6b45bd4,611e07ecdcc96256ae8d5b80,611e71a809d3c2d70610d6e8,0.3396,
,,,,space,,0,62,62,261,1,T, , , , ,space,2000,2,ben,001,2021-08-19_15h59.46.137,natb3,2021.2.3,Win32,60.07449237,60950e597e2a55a2f6b45bd4,611e07ecdcc96256ae8d5b80,611e71a809d3c2d70610d6e8,0.4304,
,,,,space,,0,63,63,330,1,T, , , , ,space,2500,2.5,ben,001,2021-08-19_15h59.46.137,natb3,2021.2.3,Win32,60.07449237,60950e597e2a55a2f6b45bd4,611e07ecdcc96256ae8d5b80,611e71a809d3c2d70610d6e8,0.4073,
,,,,,,0,64,64,252,1,X,3, ,6,9,,2000,2,ben,001,2021-08-19_15h59.46.137,natb3,2021.2.3,Win32,60.07449237,60950e597e2a55a2f6b45bd4,611e07ecdcc96256ae8d5b80,611e71a809d3c2d70610d6e8,,
,,,,space,,0,65,65,10,1,O, , , , ,space,2000,2,ben,001,2021-08-19_15h59.46.137,natb3,2021.2.3,Win32,60.07449237,60950e597e2a55a2f6b45bd4,611e07ecdcc96256ae8d5b80,611e71a809d3c2d70610d6e8,0.4031,
,,,,space,,0,66,66,312,1,K, , , , ,space,2000,2,ben,001,2021-08-19_15h59.46.137,natb3,2021.2.3,Win32,60.07449237,60950e597e2a55a2f6b45bd4,611e07ecdcc96256ae8d5b80,611e71a809d3c2d70610d6e8,0.5039,
,,,,,,0,67,67,244,1,J, , , , ,space,1500,1.5,ben,001,2021-08-19_15h59.46.137,natb3,2021.2.3,Win32,60.07449237,60950e597e2a55a2f6b45bd4,611e07ecdcc96256ae8d5b80,611e71a809d3c2d70610d6e8,,
,,,,space,,0,68,68,324,1,Q, , , , ,space,2000,2,ben,001,2021-08-19_15h59.46.137,natb3,2021.2.3,Win32,60.07449237,60950e597e2a55a2f6b45bd4,611e07ecdcc96256ae8d5b80,611e71a809d3c2d70610d6e8,0.8572,
,,,,space,,0,69,69,319,1,V, , , , ,space,2000,2,ben,001,2021-08-19_15h59.46.137,natb3,2021.2.3,Win32,60.07449237,60950e597e2a55a2f6b45bd4,611e07ecdcc96256ae8d5b80,611e71a809d3c2d70610d6e8,0.4715,
,,,,space,,0,70,70,151,1,Y, , , , ,space,2500,2.5,ben,001,2021-08-19_15h59.46.137,natb3,2021.2.3,Win32,60.07449237,60950e597e2a55a2f6b45bd4,611e07ecdcc96256ae8d5b80,611e71a809d3c2d70610d6e8,0.4916,
,,,,space,,0,71,71,164,1,H, , , , ,space,2500,2.5,ben,001,2021-08-19_15h59.46.137,natb3,2021.2.3,Win32,60.07449237,60950e597e2a55a2f6b45bd4,611e07ecdcc96256ae8d5b80,611e71a809d3c2d70610d6e8,0.478,
,,,,space,,0,72,72,321,1,N, , , , ,space,2000,2,ben,001,2021-08-19_15h59.46.137,natb3,2021.2.3,Win32,60.07449237,60950e597e2a55a2f6b45bd4,611e07ecdcc96256ae8d5b80,611e71a809d3c2d70610d6e8,0.4759,
,,,,space,,0,73,73,41,1,Y, , , , ,space,2500,2.5,ben,001,2021-08-19_15h59.46.137,natb3,2021.2.3,Win32,60.07449237,60950e597e2a55a2f6b45bd4,611e07ecdcc96256ae8d5b80,611e71a809d3c2d70610d6e8,0.5129,
,,,,space,,0,74,74,128,1,D, , , , ,space,2500,2.5,ben,001,2021-08-19_15h59.46.137,natb3,2021.2.3,Win32,60.07449237,60950e597e2a55a2f6b45bd4,611e07ecdcc96256ae8d5b80,611e71a809d3c2d70610d6e8,0.5085,
,,,,space,,0,75,75,62,1,V, , , , ,space,1500,1.5,ben,001,2021-08-19_15h59.46.137,natb3,2021.2.3,Win32,60.07449237,60950e597e2a55a2f6b45bd4,611e07ecdcc96256ae8d5b80,611e71a809d3c2d70610d6e8,0.6249,
,,,,space,,0,76,76,167,1,K, , , , ,space,1500,1.5,ben,001,2021-08-19_15h59.46.137,natb3,2021.2.3,Win32,60.07449237,60950e597e2a55a2f6b45bd4,611e07ecdcc96256ae8d5b80,611e71a809d3c2d70610d6e8,0.6158,
,,,,space,,0,77,77,77,1,O, , , , ,space,2000,2,ben,001,2021-08-19_15h59.46.137,natb3,2021.2.3,Win32,60.07449237,60950e597e2a55a2f6b45bd4,611e07ecdcc96256ae8d5b80,611e71a809d3c2d70610d6e8,0.4016,
,,,,,,0,78,78,208,1,B, , , , ,space,1500,1.5,ben,001,2021-08-19_15h59.46.137,natb3,2021.2.3,Win32,60.07449237,60950e597e2a55a2f6b45bd4,611e07ecdcc96256ae8d5b80,611e71a809d3c2d70610d6e8,,
,,,,space,,0,79,79,231,1,I, , , , ,space,2500,2.5,ben,001,2021-08-19_15h59.46.137,natb3,2021.2.3,Win32,60.07449237,60950e597e2a55a2f6b45bd4,611e07ecdcc96256ae8d5b80,611e71a809d3c2d70610d6e8,0.5144,
,,,,,,0,80,80,133,1,X, ,4, ,6,,2500,2.5,ben,001,2021-08-19_15h59.46.137,natb3,2021.2.3,Win32,60.07449237,60950e597e2a55a2f6b45bd4,611e07ecdcc96256ae8d5b80,611e71a809d3c2d70610d6e8,,
,,,,space,,0,81,81,292,1,E, , , , ,space,2000,2,ben,001,2021-08-19_15h59.46.137,natb3,2021.2.3,Win32,60.07449237,60950e597e2a55a2f6b45bd4,611e07ecdcc96256ae8d5b80,611e71a809d3c2d70610d6e8,0.5451,
,,,,space,,0,82,82,198,1,H, , , , ,space,2500,2.5,ben,001,2021-08-19_15h59.46.137,natb3,2021.2.3,Win32,60.07449237,60950e597e2a55a2f6b45bd4,611e07ecdcc96256ae8d5b80,611e71a809d3c2d70610d6e8,0.7212,
,,,,,,0,83,83,123,1,O, , , , ,space,1500,1.5,ben,001,2021-08-19_15h59.46.137,natb3,2021.2.3,Win32,60.07449237,60950e597e2a55a2f6b45bd4,611e07ecdcc96256ae8d5b80,611e71a809d3c2d70610d6e8,,
,,,,,,0,84,84,116,1,X, , , , ,,2000,2,ben,001,2021-08-19_15h59.46.137,natb3,2021.2.3,Win32,60.07449237,60950e597e2a55a2f6b45bd4,611e07ecdcc96256ae8d5b80,611e71a809d3c2d70610d6e8,,
,,,,space,,0,85,85,0,1,Q, , , , ,space,1500,1.5,ben,001,2021-08-19_15h59.46.137,natb3,2021.2.3,Win32,60.07449237,60950e597e2a55a2f6b45bd4,611e07ecdcc96256ae8d5b80,611e71a809d3c2d70610d6e8,0.5699,
,,,,,,0,86,86,35,1,X, , , , ,,2500,2.5,ben,001,2021-08-19_15h59.46.137,natb3,2021.2.3,Win32,60.07449237,60950e597e2a55a2f6b45bd4,611e07ecdcc96256ae8d5b80,611e71a809d3c2d70610d6e8,,
,,,,,,0,87,87,170,1,Z, , , , ,space,2000,2,ben,001,2021-08-19_15h59.46.137,natb3,2021.2.3,Win32,60.07449237,60950e597e2a55a2f6b45bd4,611e07ecdcc96256ae8d5b80,611e71a809d3c2d70610d6e8,,
,,,,space,,0,88,88,247,1,Z, , , , ,space,1500,1.5,ben,001,2021-08-19_15h59.46.137,natb3,2021.2.3,Win32,60.07449237,60950e597e2a55a2f6b45bd4,611e07ecdcc96256ae8d5b80,611e71a809d3c2d70610d6e8,0.7716,
,,,,,,0,89,89,226,1,R, , , , ,space,2000,2,ben,001,2021-08-19_15h59.46.137,natb3,2021.2.3,Win32,60.07449237,60950e597e2a55a2f6b45bd4,611e07ecdcc96256ae8d5b80,611e71a809d3c2d70610d6e8,,
,,,,space,,0,90,90,306,1,D, , , , ,space,2000,2,ben,001,2021-08-19_15h59.46.137,natb3,2021.2.3,Win32,60.07449237,60950e597e2a55a2f6b45bd4,611e07ecdcc96256ae8d5b80,611e71a809d3c2d70610d6e8,0.8488,
,,,,space,,0,91,91,1,1,W, , , , ,space,2000,2,ben,001,2021-08-19_15h59.46.137,natb3,2021.2.3,Win32,60.07449237,60950e597e2a55a2f6b45bd4,611e07ecdcc96256ae8d5b80,611e71a809d3c2d70610d6e8,0.6481,
,,,,space,,0,92,92,24,1,L, , , , ,space,2500,2.5,ben,001,2021-08-19_15h59.46.137,natb3,2021.2.3,Win32,60.07449237,60950e597e2a55a2f6b45bd4,611e07ecdcc96256ae8d5b80,611e71a809d3c2d70610d6e8,0.5069,
,,,,space,,0,93,93,134,1,J, , , , ,space,2000,2,ben,001,2021-08-19_15h59.46.137,natb3,2021.2.3,Win32,60.07449237,60950e597e2a55a2f6b45bd4,611e07ecdcc96256ae8d5b80,611e71a809d3c2d70610d6e8,0.3913,
,,,,space,,0,94,94,254,1,M, , , , ,space,1500,1.5,ben,001,2021-08-19_15h59.46.137,natb3,2021.2.3,Win32,60.07449237,60950e597e2a55a2f6b45bd4,611e07ecdcc96256ae8d5b80,611e71a809d3c2d70610d6e8,0.4187,
,,,,space,,0,95,95,253,1,N, , , , ,space,2500,2.5,ben,001,2021-08-19_15h59.46.137,natb3,2021.2.3,Win32,60.07449237,60950e597e2a55a2f6b45bd4,611e07ecdcc96256ae8d5b80,611e71a809d3c2d70610d6e8,0.5827,
,,,,,,0,96,96,96,1,X, , , , ,,1500,1.5,ben,001,2021-08-19_15h59.46.137,natb3,2021.2.3,Win32,60.07449237,60950e597e2a55a2f6b45bd4,611e07ecdcc96256ae8d5b80,611e71a809d3c2d70610d6e8,,
,,,,,,0,97,97,39,1,X,6,2, , ,,1500,1.5,ben,001,2021-08-19_15h59.46.137,natb3,2021.2.3,Win32,60.07449237,60950e597e2a55a2f6b45bd4,611e07ecdcc96256ae8d5b80,611e71a809d3c2d70610d6e8,,
,,,,,,0,98,98,315,1,X, , , , ,,2500,2.5,ben,001,2021-08-19_15h59.46.137,natb3,2021.2.3,Win32,60.07449237,60950e597e2a55a2f6b45bd4,611e07ecdcc96256ae8d5b80,611e71a809d3c2d70610d6e8,,
,,,,space,,0,99,99,279,1,K, , , , ,space,2500,2.5,ben,001,2021-08-19_15h59.46.137,natb3,2021.2.3,Win32,60.07449237,60950e597e2a55a2f6b45bd4,611e07ecdcc96256ae8d5b80,611e71a809d3c2d70610d6e8,0.4813,
,,,,space,,0,100,100,220,1,U, , , , ,space,2500,2.5,ben,001,2021-08-19_15h59.46.137,natb3,2021.2.3,Win32,60.07449237,60950e597e2a55a2f6b45bd4,611e07ecdcc96256ae8d5b80,611e71a809d3c2d70610d6e8,0.5214,
,,,,space,,0,101,101,241,1,G, , , , ,space,2500,2.5,ben,001,2021-08-19_15h59.46.137,natb3,2021.2.3,Win32,60.07449237,60950e597e2a55a2f6b45bd4,611e07ecdcc96256ae8d5b80,611e71a809d3c2d70610d6e8,0.6256,
,,,,,,0,102,102,125,1,X, , , , ,,2000,2,ben,001,2021-08-19_15h59.46.137,natb3,2021.2.3,Win32,60.07449237,60950e597e2a55a2f6b45bd4,611e07ecdcc96256ae8d5b80,611e71a809d3c2d70610d6e8,,
,,,,space,,0,103,103,21,1,J, , , , ,space,1500,1.5,ben,001,2021-08-19_15h59.46.137,natb3,2021.2.3,Win32,60.07449237,60950e597e2a55a2f6b45bd4,611e07ecdcc96256ae8d5b80,611e71a809d3c2d70610d6e8,0.6626,
,,,,space,,0,104,104,44,1,I, , , , ,space,2500,2.5,ben,001,2021-08-19_15h59.46.137,natb3,2021.2.3,Win32,60.07449237,60950e597e2a55a2f6b45bd4,611e07ecdcc96256ae8d5b80,611e71a809d3c2d70610d6e8,0.5326,
,,,,,,0,105,105,54,1,X, , , , ,,2000,2,ben,001,2021-08-19_15h59.46.137,natb3,2021.2.3,Win32,60.07449237,60950e597e2a55a2f6b45bd4,611e07ecdcc96256ae8d5b80,611e71a809d3c2d70610d6e8,,
,,,,space,,0,106,106,73,1,Y, , , , ,space,2000,2,ben,001,2021-08-19_15h59.46.137,natb3,2021.2.3,Win32,60.07449237,60950e597e2a55a2f6b45bd4,611e07ecdcc96256ae8d5b80,611e71a809d3c2d70610d6e8,0.5844,
,,,,space,,0,107,107,264,1,U, , , , ,space,2000,2,ben,001,2021-08-19_15h59.46.137,natb3,2021.2.3,Win32,60.07449237,60950e597e2a55a2f6b45bd4,611e07ecdcc96256ae8d5b80,611e71a809d3c2d70610d6e8,0.4195,
,,,,space,,0,108,108,174,1,B, , , , ,space,2500,2.5,ben,001,2021-08-19_15h59.46.137,natb3,2021.2.3,Win32,60.07449237,60950e597e2a55a2f6b45bd4,611e07ecdcc96256ae8d5b80,611e71a809d3c2d70610d6e8,0.498,
,,,,space,,0,109,109,240,1,F, , , , ,space,2500,2.5,ben,001,2021-08-19_15h59.46.137,natb3,2021.2.3,Win32,60.07449237,60950e597e2a55a2f6b45bd4,611e07ecdcc96256ae8d5b80,611e71a809d3c2d70610d6e8,0.4732,
,,,,space,,0,110,110,189,1,O, , , , ,space,1500,1.5,ben,001,2021-08-19_15h59.46.137,natb3,2021.2.3,Win32,60.07449237,60950e597e2a55a2f6b45bd4,611e07ecdcc96256ae8d5b80,611e71a809d3c2d70610d6e8,0.5977,
,,,,space,,0,111,111,81,1,S, , , , ,space,2000,2,ben,001,2021-08-19_15h59.46.137,natb3,2021.2.3,Win32,60.07449237,60950e597e2a55a2f6b45bd4,611e07ecdcc96256ae8d5b80,611e71a809d3c2d70610d6e8,0.5786,
,,,,space,,0,112,112,139,1,V, , , , ,space,2000,2,ben,001,2021-08-19_15h59.46.137,natb3,2021.2.3,Win32,60.07449237,60950e597e2a55a2f6b45bd4,611e07ecdcc96256ae8d5b80,611e71a809d3c2d70610d6e8,0.6993,
,,,,space,,0,113,113,304,1,S, , , , ,space,2000,2,ben,001,2021-08-19_15h59.46.137,natb3,2021.2.3,Win32,60.07449237,60950e597e2a55a2f6b45bd4,611e07ecdcc96256ae8d5b80,611e71a809d3c2d70610d6e8,0.7829,
,,,,,,0,114,114,239,1,X, , , , ,,2000,2,ben,001,2021-08-19_15h59.46.137,natb3,2021.2.3,Win32,60.07449237,60950e597e2a55a2f6b45bd4,611e07ecdcc96256ae8d5b80,611e71a809d3c2d70610d6e8,,
,,,,,,0,115,115,158,1,X, , , , ,,1500,1.5,ben,001,2021-08-19_15h59.46.137,natb3,2021.2.3,Win32,60.07449237,60950e597e2a55a2f6b45bd4,611e07ecdcc96256ae8d5b80,611e71a809d3c2d70610d6e8,,
,,,,space,,0,116,116,331,1,Y, , , , ,space,2500,2.5,ben,001,2021-08-19_15h59.46.137,natb3,2021.2.3,Win32,60.07449237,60950e597e2a55a2f6b45bd4,611e07ecdcc96256ae8d5b80,611e71a809d3c2d70610d6e8,0.4598,
,,,,space,,0,117,117,22,1,K, , , , ,space,2000,2,ben,001,2021-08-19_15h59.46.137,natb3,2021.2.3,Win32,60.07449237,60950e597e2a55a2f6b45bd4,611e07ecdcc96256ae8d5b80,611e71a809d3c2d70610d6e8,0.57,
,,,,space,,0,118,118,100,1,M, , , , ,space,2000,2,ben,001,2021-08-19_15h59.46.137,natb3,2021.2.3,Win32,60.07449237,60950e597e2a55a2f6b45bd4,611e07ecdcc96256ae8d5b80,611e71a809d3c2d70610d6e8,0.6009,
,,,,,,0,119,119,27,1,X,5, ,1,3,,1500,1.5,ben,001,2021-08-19_15h59.46.137,natb3,2021.2.3,Win32,60.07449237,60950e597e2a55a2f6b45bd4,611e07ecdcc96256ae8d5b80,611e71a809d3c2d70610d6e8,,
,,,,space,,0,120,120,114,1,E, , , , ,space,2000,2,ben,001,2021-08-19_15h59.46.137,natb3,2021.2.3,Win32,60.07449237,60950e597e2a55a2f6b45bd4,611e07ecdcc96256ae8d5b80,611e71a809d3c2d70610d6e8,0.5278,
,,,,,,0,121,121,287,1,X, ,2, ,9,,2000,2,ben,001,2021-08-19_15h59.46.137,natb3,2021.2.3,Win32,60.07449237,60950e597e2a55a2f6b45bd4,611e07ecdcc96256ae8d5b80,611e71a809d3c2d70610d6e8,,
,,,,,,0,122,122,107,1,X,9,3, ,2,,2000,2,ben,001,2021-08-19_15h59.46.137,natb3,2021.2.3,Win32,60.07449237,60950e597e2a55a2f6b45bd4,611e07ecdcc96256ae8d5b80,611e71a809d3c2d70610d6e8,,
,,,,space,,0,123,123,326,1,W, , , , ,space,2000,2,ben,001,2021-08-19_15h59.46.137,natb3,2021.2.3,Win32,60.07449237,60950e597e2a55a2f6b45bd4,611e07ecdcc96256ae8d5b80,611e71a809d3c2d70610d6e8,0.7602,
,,,,,,0,124,124,13,1,A, , , , ,space,2000,2,ben,001,2021-08-19_15h59.46.137,natb3,2021.2.3,Win32,60.07449237,60950e597e2a55a2f6b45bd4,611e07ecdcc96256ae8d5b80,611e71a809d3c2d70610d6e8,,
,,,,,,0,125,125,325,1,X, , , , ,,2500,2.5,ben,001,2021-08-19_15h59.46.137,natb3,2021.2.3,Win32,60.07449237,60950e597e2a55a2f6b45bd4,611e07ecdcc96256ae8d5b80,611e71a809d3c2d70610d6e8,,
,,,,space,,0,126,126,45,1,O, , , , ,space,2000,2,ben,001,2021-08-19_15h59.46.137,natb3,2021.2.3,Win32,60.07449237,60950e597e2a55a2f6b45bd4,611e07ecdcc96256ae8d5b80,611e71a809d3c2d70610d6e8,0.7541,
,,,,space,,0,127,127,101,1,Q, , , , ,space,2500,2.5,ben,001,2021-08-19_15h59.46.137,natb3,2021.2.3,Win32,60.07449237,60950e597e2a55a2f6b45bd4,611e07ecdcc96256ae8d5b80,611e71a809d3c2d70610d6e8,0.6453,
,,,,space,,0,128,128,79,1,P, , , , ,space,2000,2,ben,001,2021-08-19_15h59.46.137,natb3,2021.2.3,Win32,60.07449237,60950e597e2a55a2f6b45bd4,611e07ecdcc96256ae8d5b80,611e71a809d3c2d70610d6e8,0.7835,
,,,,space,,0,129,129,65,1,M, , , , ,space,1500,1.5,ben,001,2021-08-19_15h59.46.137,natb3,2021.2.3,Win32,60.07449237,60950e597e2a55a2f6b45bd4,611e07ecdcc96256ae8d5b80,611e71a809d3c2d70610d6e8,0.7605,
,,,,space,,0,130,130,176,1,N, , , , ,space,1500,1.5,ben,001,2021-08-19_15h59.46.137,natb3,2021.2.3,Win32,60.07449237,60950e597e2a55a2f6b45bd4,611e07ecdcc96256ae8d5b80,611e71a809d3c2d70610d6e8,0.7744,
,,,,,,0,131,131,43,1,X, ,6, ,2,,2500,2.5,ben,001,2021-08-19_15h59.46.137,natb3,2021.2.3,Win32,60.07449237,60950e597e2a55a2f6b45bd4,611e07ecdcc96256ae8d5b80,611e71a809d3c2d70610d6e8,,
,,,,space,,0,132,132,310,1,J, , , , ,space,2500,2.5,ben,001,2021-08-19_15h59.46.137,natb3,2021.2.3,Win32,60.07449237,60950e597e2a55a2f6b45bd4,611e07ecdcc96256ae8d5b80,611e71a809d3c2d70610d6e8,0.6537,
,,,,,,0,133,133,98,1,X, , , , ,,2500,2.5,ben,001,2021-08-19_15h59.46.137,natb3,2021.2.3,Win32,60.07449237,60950e597e2a55a2f6b45bd4,611e07ecdcc96256ae8d5b80,611e71a809d3c2d70610d6e8,,
,,,,space,,0,134,134,161,1,F, , , , ,space,1500,1.5,ben,001,2021-08-19_15h59.46.137,natb3,2021.2.3,Win32,60.07449237,60950e597e2a55a2f6b45bd4,611e07ecdcc96256ae8d5b80,611e71a809d3c2d70610d6e8,0.6474,
,,,,,,0,135,135,89,1,X,3, , , ,,2000,2,ben,001,2021-08-19_15h59.46.137,natb3,2021.2.3,Win32,60.07449237,60950e597e2a55a2f6b45bd4,611e07ecdcc96256ae8d5b80,611e71a809d3c2d70610d6e8,,
,,,,,,0,136,136,23,1,X,1, ,5, ,,2000,2,ben,001,2021-08-19_15h59.46.137,natb3,2021.2.3,Win32,60.07449237,60950e597e2a55a2f6b45bd4,611e07ecdcc96256ae8d5b80,611e71a809d3c2d70610d6e8,,
,,,,,,0,137,137,187,1,X, ,3,7,4,,1500,1.5,ben,001,2021-08-19_15h59.46.137,natb3,2021.2.3,Win32,60.07449237,60950e597e2a55a2f6b45bd4,611e07ecdcc96256ae8d5b80,611e71a809d3c2d70610d6e8,,
,,,,,,0,138,138,122,1,X,1, , ,8,,1500,1.5,ben,001,2021-08-19_15h59.46.137,natb3,2021.2.3,Win32,60.07449237,60950e597e2a55a2f6b45bd4,611e07ecdcc96256ae8d5b80,611e71a809d3c2d70610d6e8,,
,,,,space,,0,139,139,147,1,E, , , , ,space,2000,2,ben,001,2021-08-19_15h59.46.137,natb3,2021.2.3,Win32,60.07449237,60950e597e2a55a2f6b45bd4,611e07ecdcc96256ae8d5b80,611e71a809d3c2d70610d6e8,0.5036,
,,,,space,,0,140,140,276,1,H, , , , ,space,2000,2,ben,001,2021-08-19_15h59.46.137,natb3,2021.2.3,Win32,60.07449237,60950e597e2a55a2f6b45bd4,611e07ecdcc96256ae8d5b80,611e71a809d3c2d70610d6e8,0.4761,
,,,,space,,0,141,141,92,1,Z, , , , ,space,1500,1.5,ben,001,2021-08-19_15h59.46.137,natb3,2021.2.3,Win32,60.07449237,60950e597e2a55a2f6b45bd4,611e07ecdcc96256ae8d5b80,611e71a809d3c2d70610d6e8,0.6139,
,,,,,,0,142,142,12,1,X, , , , ,,1500,1.5,ben,001,2021-08-19_15h59.46.137,natb3,2021.2.3,Win32,60.07449237,60950e597e2a55a2f6b45bd4,611e07ecdcc96256ae8d5b80,611e71a809d3c2d70610d6e8,,
,,,,,,0,143,143,286,1,N, , , , ,space,1500,1.5,ben,001,2021-08-19_15h59.46.137,natb3,2021.2.3,Win32,60.07449237,60950e597e2a55a2f6b45bd4,611e07ecdcc96256ae8d5b80,611e71a809d3c2d70610d6e8,,
,,,,space,,0,144,144,144,1,Q, , , , ,space,2500,2.5,ben,001,2021-08-19_15h59.46.137,natb3,2021.2.3,Win32,60.07449237,60950e597e2a55a2f6b45bd4,611e07ecdcc96256ae8d5b80,611e71a809d3c2d70610d6e8,0.5936,
,,,,,,0,145,145,9,1,I, , , , ,space,1500,1.5,ben,001,2021-08-19_15h59.46.137,natb3,2021.2.3,Win32,60.07449237,60950e597e2a55a2f6b45bd4,611e07ecdcc96256ae8d5b80,611e71a809d3c2d70610d6e8,,
,,,,,,0,146,146,168,1,X, , , , ,,2500,2.5,ben,001,2021-08-19_15h59.46.137,natb3,2021.2.3,Win32,60.07449237,60950e597e2a55a2f6b45bd4,611e07ecdcc96256ae8d5b80,611e71a809d3c2d70610d6e8,,
,,,,space,,0,147,147,55,1,H, , , , ,space,2500,2.5,ben,001,2021-08-19_15h59.46.137,natb3,2021.2.3,Win32,60.07449237,60950e597e2a55a2f6b45bd4,611e07ecdcc96256ae8d5b80,611e71a809d3c2d70610d6e8,0.7337,
,,,,,,0,148,148,322,1,X, , ,1,6,,2000,2,ben,001,2021-08-19_15h59.46.137,natb3,2021.2.3,Win32,60.07449237,60950e597e2a55a2f6b45bd4,611e07ecdcc96256ae8d5b80,611e71a809d3c2d70610d6e8,,
,,,,space,,0,149,149,180,1,W, , , , ,space,2000,2,ben,001,2021-08-19_15h59.46.137,natb3,2021.2.3,Win32,60.07449237,60950e597e2a55a2f6b45bd4,611e07ecdcc96256ae8d5b80,611e71a809d3c2d70610d6e8,0.685,
,,,,,,0,150,150,51,1,X,7,5,8, ,,1500,1.5,ben,001,2021-08-19_15h59.46.137,natb3,2021.2.3,Win32,60.07449237,60950e597e2a55a2f6b45bd4,611e07ecdcc96256ae8d5b80,611e71a809d3c2d70610d6e8,,
,,,,space,,0,151,151,246,1,L, , , , ,space,2500,2.5,ben,001,2021-08-19_15h59.46.137,natb3,2021.2.3,Win32,60.07449237,60950e597e2a55a2f6b45bd4,611e07ecdcc96256ae8d5b80,611e71a809d3c2d70610d6e8,0.7193,
,,,,space,,0,152,152,42,1,U, , , , ,space,1500,1.5,ben,001,2021-08-19_15h59.46.137,natb3,2021.2.3,Win32,60.07449237,60950e597e2a55a2f6b45bd4,611e07ecdcc96256ae8d5b80,611e71a809d3c2d70610d6e8,0.8441,
,,,,space,,0,153,153,97,1,B, , , , ,space,2500,2.5,ben,001,2021-08-19_15h59.46.137,natb3,2021.2.3,Win32,60.07449237,60950e597e2a55a2f6b45bd4,611e07ecdcc96256ae8d5b80,611e71a809d3c2d70610d6e8,0.5502,
,,,,,,0,154,154,200,1,X,7, ,5,3,,1500,1.5,ben,001,2021-08-19_15h59.46.137,natb3,2021.2.3,Win32,60.07449237,60950e597e2a55a2f6b45bd4,611e07ecdcc96256ae8d5b80,611e71a809d3c2d70610d6e8,,
,,,,space,,0,155,155,225,1,E, , , , ,space,2000,2,ben,001,2021-08-19_15h59.46.137,natb3,2021.2.3,Win32,60.07449237,60950e597e2a55a2f6b45bd4,611e07ecdcc96256ae8d5b80,611e71a809d3c2d70610d6e8,0.6902,
,,,,space,,0,156,156,267,1,P, , , , ,space,2000,2,ben,001,2021-08-19_15h59.46.137,natb3,2021.2.3,Win32,60.07449237,60950e597e2a55a2f6b45bd4,611e07ecdcc96256ae8d5b80,611e71a809d3c2d70610d6e8,0.6573,
,,,,space,,0,157,157,219,1,Y, , , , ,space,2000,2,ben,001,2021-08-19_15h59.46.137,natb3,2021.2.3,Win32,60.07449237,60950e597e2a55a2f6b45bd4,611e07ecdcc96256ae8d5b80,611e71a809d3c2d70610d6e8,0.4516,
,,,,space,,0,158,158,265,1,I, , , , ,space,2000,2,ben,001,2021-08-19_15h59.46.137,natb3,2021.2.3,Win32,60.07449237,60950e597e2a55a2f6b45bd4,611e07ecdcc96256ae8d5b80,611e71a809d3c2d70610d6e8,0.318,
,,,,space,,0,159,159,332,1,U, , , , ,space,2000,2,ben,001,2021-08-19_15h59.46.137,natb3,2021.2.3,Win32,60.07449237,60950e597e2a55a2f6b45bd4,611e07ecdcc96256ae8d5b80,611e71a809d3c2d70610d6e8,0.4227,
,,,,,,0,160,160,46,1,X, , , , ,,2000,2,ben,001,2021-08-19_15h59.46.137,natb3,2021.2.3,Win32,60.07449237,60950e597e2a55a2f6b45bd4,611e07ecdcc96256ae8d5b80,611e71a809d3c2d70610d6e8,,
,,,,space,,0,161,161,53,1,G, , , , ,space,2500,2.5,ben,001,2021-08-19_15h59.46.137,natb3,2021.2.3,Win32,60.07449237,60950e597e2a55a2f6b45bd4,611e07ecdcc96256ae8d5b80,611e71a809d3c2d70610d6e8,0.5051,
,,,,space,,0,162,162,210,1,M, , , , ,space,1500,1.5,ben,001,2021-08-19_15h59.46.137,natb3,2021.2.3,Win32,60.07449237,60950e597e2a55a2f6b45bd4,611e07ecdcc96256ae8d5b80,611e71a809d3c2d70610d6e8,0.7514,
,,,,space,,0,163,163,80,1,A, , , , ,space,2000,2,ben,001,2021-08-19_15h59.46.137,natb3,2021.2.3,Win32,60.07449237,60950e597e2a55a2f6b45bd4,611e07ecdcc96256ae8d5b80,611e71a809d3c2d70610d6e8,0.6395,
,,,,,,0,164,164,236,1,X,3, ,4,7,,2500,2.5,ben,001,2021-08-19_15h59.46.137,natb3,2021.2.3,Win32,60.07449237,60950e597e2a55a2f6b45bd4,611e07ecdcc96256ae8d5b80,611e71a809d3c2d70610d6e8,,
,,,,space,,0,165,165,222,1,O, , , , ,space,2000,2,ben,001,2021-08-19_15h59.46.137,natb3,2021.2.3,Win32,60.07449237,60950e597e2a55a2f6b45bd4,611e07ecdcc96256ae8d5b80,611e71a809d3c2d70610d6e8,0.5608,
,,,,,,0,166,166,148,1,X, , , , ,,2000,2,ben,001,2021-08-19_15h59.46.137,natb3,2021.2.3,Win32,60.07449237,60950e597e2a55a2f6b45bd4,611e07ecdcc96256ae8d5b80,611e71a809d3c2d70610d6e8,,
,,,,space,space,0,167,167,95,1,V, , , , ,space,1500,1.5,ben,001,2021-08-19_15h59.46.137,natb3,2021.2.3,Win32,60.07449237,60950e597e2a55a2f6b45bd4,611e07ecdcc96256ae8d5b80,611e71a809d3c2d70610d6e8,0.6703,348.7291
,,,,space,,0,168,168,327,1,E, , , , ,space,1500,1.5,ben,001,2021-08-19_15h59.46.137,natb3,2021.2.3,Win32,60.07449237,60950e597e2a55a2f6b45bd4,611e07ecdcc96256ae8d5b80,611e71a809d3c2d70610d6e8,0.508,
,,,,space,,0,169,169,328,1,R, , , , ,space,1500,1.5,ben,001,2021-08-19_15h59.46.137,natb3,2021.2.3,Win32,60.07449237,60950e597e2a55a2f6b45bd4,611e07ecdcc96256ae8d5b80,611e71a809d3c2d70610d6e8,0.4435,
,,,,space,,0,170,170,76,1,I, , , , ,space,2000,2,ben,001,2021-08-19_15h59.46.137,natb3,2021.2.3,Win32,60.07449237,60950e597e2a55a2f6b45bd4,611e07ecdcc96256ae8d5b80,611e71a809d3c2d70610d6e8,0.362,
,,,,space,,0,171,171,196,1,F, , , , ,space,1500,1.5,ben,001,2021-08-19_15h59.46.137,natb3,2021.2.3,Win32,60.07449237,60950e597e2a55a2f6b45bd4,611e07ecdcc96256ae8d5b80,611e71a809d3c2d70610d6e8,0.7877,
,,,,,,0,172,172,295,1,X,8,7,5, ,,2500,2.5,ben,001,2021-08-19_15h59.46.137,natb3,2021.2.3,Win32,60.07449237,60950e597e2a55a2f6b45bd4,611e07ecdcc96256ae8d5b80,611e71a809d3c2d70610d6e8,,
,,,,space,,0,173,173,121,1,I, , , , ,space,2000,2,ben,001,2021-08-19_15h59.46.137,natb3,2021.2.3,Win32,60.07449237,60950e597e2a55a2f6b45bd4,611e07ecdcc96256ae8d5b80,611e71a809d3c2d70610d6e8,0.5172,
,,,,space,,0,174,174,302,1,X, , , , ,,2000,2,ben,001,2021-08-19_15h59.46.137,natb3,2021.2.3,Win32,60.07449237,60950e597e2a55a2f6b45bd4,611e07ecdcc96256ae8d5b80,611e71a809d3c2d70610d6e8,0.5709,
,,,,space,,0,175,175,85,1,F, , , , ,space,2500,2.5,ben,001,2021-08-19_15h59.46.137,natb3,2021.2.3,Win32,60.07449237,60950e597e2a55a2f6b45bd4,611e07ecdcc96256ae8d5b80,611e71a809d3c2d70610d6e8,0.3833,
,,,,,,0,176,176,333,1,I, , , , ,space,1500,1.5,ben,001,2021-08-19_15h59.46.137,natb3,2021.2.3,Win32,60.07449237,60950e597e2a55a2f6b45bd4,611e07ecdcc96256ae8d5b80,611e71a809d3c2d70610d6e8,,
,,,,space,,0,177,177,281,1,Z, , , , ,space,1500,1.5,ben,001,2021-08-19_15h59.46.137,natb3,2021.2.3,Win32,60.07449237,60950e597e2a55a2f6b45bd4,611e07ecdcc96256ae8d5b80,611e71a809d3c2d70610d6e8,0.3527,
,,,,space,,0,178,178,117,1,T, , , , ,space,2500,2.5,ben,001,2021-08-19_15h59.46.137,natb3,2021.2.3,Win32,60.07449237,60950e597e2a55a2f6b45bd4,611e07ecdcc96256ae8d5b80,611e71a809d3c2d70610d6e8,0.8561,
,,,,,,0,179,179,118,1,X, , , , ,,2000,2,ben,001,2021-08-19_15h59.46.137,natb3,2021.2.3,Win32,60.07449237,60950e597e2a55a2f6b45bd4,611e07ecdcc96256ae8d5b80,611e71a809d3c2d70610d6e8,,
,,,,space,,0,180,180,202,1,L, , , , ,space,2500,2.5,ben,001,2021-08-19_15h59.46.137,natb3,2021.2.3,Win32,60.07449237,60950e597e2a55a2f6b45bd4,611e07ecdcc96256ae8d5b80,611e71a809d3c2d70610d6e8,0.6007,
,,,,,,0,181,181,318,1,X, , , , ,,1500,1.5,ben,001,2021-08-19_15h59.46.137,natb3,2021.2.3,Win32,60.07449237,60950e597e2a55a2f6b45bd4,611e07ecdcc96256ae8d5b80,611e71a809d3c2d70610d6e8,,
,,,,space,,0,182,182,297,1,U, , , , ,space,2000,2,ben,001,2021-08-19_15h59.46.137,natb3,2021.2.3,Win32,60.07449237,60950e597e2a55a2f6b45bd4,611e07ecdcc96256ae8d5b80,611e71a809d3c2d70610d6e8,0.3694,
,,,,space,,0,183,183,119,1,Y, , , , ,space,2500,2.5,ben,001,2021-08-19_15h59.46.137,natb3,2021.2.3,Win32,60.07449237,60950e597e2a55a2f6b45bd4,611e07ecdcc96256ae8d5b80,611e71a809d3c2d70610d6e8,0.4205,
,,,,space,,0,184,184,334,1,O, , , , ,space,1500,1.5,ben,001,2021-08-19_15h59.46.137,natb3,2021.2.3,Win32,60.07449237,60950e597e2a55a2f6b45bd4,611e07ecdcc96256ae8d5b80,611e71a809d3c2d70610d6e8,0.7601,
,,,,,,0,185,185,213,1,X, , , , ,,2500,2.5,ben,001,2021-08-19_15h59.46.137,natb3,2021.2.3,Win32,60.07449237,60950e597e2a55a2f6b45bd4,611e07ecdcc96256ae8d5b80,611e71a809d3c2d70610d6e8,,
,,,,,,0,186,186,166,1,X, , , , ,,2000,2,ben,001,2021-08-19_15h59.46.137,natb3,2021.2.3,Win32,60.07449237,60950e597e2a55a2f6b45bd4,611e07ecdcc96256ae8d5b80,611e71a809d3c2d70610d6e8,,
,,,,space,,0,187,187,169,1,L, , , , ,space,2500,2.5,ben,001,2021-08-19_15h59.46.137,natb3,2021.2.3,Win32,60.07449237,60950e597e2a55a2f6b45bd4,611e07ecdcc96256ae8d5b80,611e71a809d3c2d70610d6e8,0.4394,
,,,,space,,0,188,188,94,1,C, , , , ,space,2000,2,ben,001,2021-08-19_15h59.46.137,natb3,2021.2.3,Win32,60.07449237,60950e597e2a55a2f6b45bd4,611e07ecdcc96256ae8d5b80,611e71a809d3c2d70610d6e8,0.517,
,,,,space,,0,189,189,67,1,Q, , , , ,space,2000,2,ben,001,2021-08-19_15h59.46.137,natb3,2021.2.3,Win32,60.07449237,60950e597e2a55a2f6b45bd4,611e07ecdcc96256ae8d5b80,611e71a809d3c2d70610d6e8,0.6251,
,,,,,,0,190,190,248,1,X, ,1,5, ,,1500,1.5,ben,001,2021-08-19_15h59.46.137,natb3,2021.2.3,Win32,60.07449237,60950e597e2a55a2f6b45bd4,611e07ecdcc96256ae8d5b80,611e71a809d3c2d70610d6e8,,
,,,,,,0,191,191,31,1,X, , , , ,,1500,1.5,ben,001,2021-08-19_15h59.46.137,natb3,2021.2.3,Win32,60.07449237,60950e597e2a55a2f6b45bd4,611e07ecdcc96256ae8d5b80,611e71a809d3c2d70610d6e8,,
,,,,space,,0,192,192,6,1,Y, , , , ,space,2500,2.5,ben,001,2021-08-19_15h59.46.137,natb3,2021.2.3,Win32,60.07449237,60950e597e2a55a2f6b45bd4,611e07ecdcc96256ae8d5b80,611e71a809d3c2d70610d6e8,0.4619,
,,,,,,0,193,193,137,1,C, , , , ,space,2500,2.5,ben,001,2021-08-19_15h59.46.137,natb3,2021.2.3,Win32,60.07449237,60950e597e2a55a2f6b45bd4,611e07ecdcc96256ae8d5b80,611e71a809d3c2d70610d6e8,,
,,,,space,,0,194,194,37,1,E, , , , ,space,2500,2.5,ben,001,2021-08-19_15h59.46.137,natb3,2021.2.3,Win32,60.07449237,60950e597e2a55a2f6b45bd4,611e07ecdcc96256ae8d5b80,611e71a809d3c2d70610d6e8,0.385,
,,,,space,,0,195,195,192,1,A, , , , ,space,2000,2,ben,001,2021-08-19_15h59.46.137,natb3,2021.2.3,Win32,60.07449237,60950e597e2a55a2f6b45bd4,611e07ecdcc96256ae8d5b80,611e71a809d3c2d70610d6e8,0.5708,
,,,,space,,0,196,196,181,1,E, , , , ,space,1500,1.5,ben,001,2021-08-19_15h59.46.137,natb3,2021.2.3,Win32,60.07449237,60950e597e2a55a2f6b45bd4,611e07ecdcc96256ae8d5b80,611e71a809d3c2d70610d6e8,0.4205,
,,,,space,,0,197,197,256,1,Q, , , , ,space,2000,2,ben,001,2021-08-19_15h59.46.137,natb3,2021.2.3,Win32,60.07449237,60950e597e2a55a2f6b45bd4,611e07ecdcc96256ae8d5b80,611e71a809d3c2d70610d6e8,0.4175,
,,,,space,,0,198,198,70,1,E, , , , ,space,2500,2.5,ben,001,2021-08-19_15h59.46.137,natb3,2021.2.3,Win32,60.07449237,60950e597e2a55a2f6b45bd4,611e07ecdcc96256ae8d5b80,611e71a809d3c2d70610d6e8,0.383,
,,,,space,,0,199,199,159,1,S, , , , ,space,2500,2.5,ben,001,2021-08-19_15h59.46.137,natb3,2021.2.3,Win32,60.07449237,60950e597e2a55a2f6b45bd4,611e07ecdcc96256ae8d5b80,611e71a809d3c2d70610d6e8,0.4243,
,,,,space,,0,200,200,8,1,U, , , , ,space,1500,1.5,ben,001,2021-08-19_15h59.46.137,natb3,2021.2.3,Win32,60.07449237,60950e597e2a55a2f6b45bd4,611e07ecdcc96256ae8d5b80,611e71a809d3c2d70610d6e8,0.6711,
,,,,space,,0,201,201,126,1,A, , , , ,space,2500,2.5,ben,001,2021-08-19_15h59.46.137,natb3,2021.2.3,Win32,60.07449237,60950e597e2a55a2f6b45bd4,611e07ecdcc96256ae8d5b80,611e71a809d3c2d70610d6e8,0.5179,
,,,,,,0,202,202,29,1,B, , , , ,space,1500,1.5,ben,001,2021-08-19_15h59.46.137,natb3,2021.2.3,Win32,60.07449237,60950e597e2a55a2f6b45bd4,611e07ecdcc96256ae8d5b80,611e71a809d3c2d70610d6e8,,
,,,,space,,0,203,203,99,1,N, , , , ,space,2500,2.5,ben,001,2021-08-19_15h59.46.137,natb3,2021.2.3,Win32,60.07449237,60950e597e2a55a2f6b45bd4,611e07ecdcc96256ae8d5b80,611e71a809d3c2d70610d6e8,0.4157,
,,,,space,,0,204,204,140,1,B, , , , ,space,2500,2.5,ben,001,2021-08-19_15h59.46.137,natb3,2021.2.3,Win32,60.07449237,60950e597e2a55a2f6b45bd4,611e07ecdcc96256ae8d5b80,611e71a809d3c2d70610d6e8,0.4341,
,,,,space,,0,205,205,130,1,F, , , , ,space,2000,2,ben,001,2021-08-19_15h59.46.137,natb3,2021.2.3,Win32,60.07449237,60950e597e2a55a2f6b45bd4,611e07ecdcc96256ae8d5b80,611e71a809d3c2d70610d6e8,0.423,
,,,,space,,0,206,206,112,1,Q, , , , ,space,2500,2.5,ben,001,2021-08-19_15h59.46.137,natb3,2021.2.3,Win32,60.07449237,60950e597e2a55a2f6b45bd4,611e07ecdcc96256ae8d5b80,611e71a809d3c2d70610d6e8,0.3729,
,,,,,,0,207,207,52,1,F, , , , ,space,1500,1.5,ben,001,2021-08-19_15h59.46.137,natb3,2021.2.3,Win32,60.07449237,60950e597e2a55a2f6b45bd4,611e07ecdcc96256ae8d5b80,611e71a809d3c2d70610d6e8,,
,,,,space,,0,208,208,142,1,N, , , , ,space,2500,2.5,ben,001,2021-08-19_15h59.46.137,natb3,2021.2.3,Win32,60.07449237,60950e597e2a55a2f6b45bd4,611e07ecdcc96256ae8d5b80,611e71a809d3c2d70610d6e8,0.65,
,,,,space,,0,209,209,78,1,X, , , , ,,2000,2,ben,001,2021-08-19_15h59.46.137,natb3,2021.2.3,Win32,60.07449237,60950e597e2a55a2f6b45bd4,611e07ecdcc96256ae8d5b80,611e71a809d3c2d70610d6e8,0.6337,
,,,,space,,0,210,210,146,1,W, , , , ,space,1500,1.5,ben,001,2021-08-19_15h59.46.137,natb3,2021.2.3,Win32,60.07449237,60950e597e2a55a2f6b45bd4,611e07ecdcc96256ae8d5b80,611e71a809d3c2d70610d6e8,0.532,
,,,,space,,0,211,211,258,1,E, , , , ,space,1500,1.5,ben,001,2021-08-19_15h59.46.137,natb3,2021.2.3,Win32,60.07449237,60950e597e2a55a2f6b45bd4,611e07ecdcc96256ae8d5b80,611e71a809d3c2d70610d6e8,0.8671,
,,,,space,,0,212,212,317,1,C, , , , ,space,2000,2,ben,001,2021-08-19_15h59.46.137,natb3,2021.2.3,Win32,60.07449237,60950e597e2a55a2f6b45bd4,611e07ecdcc96256ae8d5b80,611e71a809d3c2d70610d6e8,0.4427,
,,,,space,,0,213,213,221,1,I, , , , ,space,2500,2.5,ben,001,2021-08-19_15h59.46.137,natb3,2021.2.3,Win32,60.07449237,60950e597e2a55a2f6b45bd4,611e07ecdcc96256ae8d5b80,611e71a809d3c2d70610d6e8,0.476,
,,,,space,,0,214,214,269,1,A, , , , ,space,2500,2.5,ben,001,2021-08-19_15h59.46.137,natb3,2021.2.3,Win32,60.07449237,60950e597e2a55a2f6b45bd4,611e07ecdcc96256ae8d5b80,611e71a809d3c2d70610d6e8,0.4924,
,,,,space,,0,215,215,307,1,F, , , , ,space,2500,2.5,ben,001,2021-08-19_15h59.46.137,natb3,2021.2.3,Win32,60.07449237,60950e597e2a55a2f6b45bd4,611e07ecdcc96256ae8d5b80,611e71a809d3c2d70610d6e8,0.4834,
,,,,,,0,216,216,273,1,X, , , , ,,2000,2,ben,001,2021-08-19_15h59.46.137,natb3,2021.2.3,Win32,60.07449237,60950e597e2a55a2f6b45bd4,611e07ecdcc96256ae8d5b80,611e71a809d3c2d70610d6e8,,
,,,,space,,0,217,217,11,1,P, , , , ,space,2500,2.5,ben,001,2021-08-19_15h59.46.137,natb3,2021.2.3,Win32,60.07449237,60950e597e2a55a2f6b45bd4,611e07ecdcc96256ae8d5b80,611e71a809d3c2d70610d6e8,0.3861,
,,,,space,,0,218,218,197,1,G, , , , ,space,2500,2.5,ben,001,2021-08-19_15h59.46.137,natb3,2021.2.3,Win32,60.07449237,60950e597e2a55a2f6b45bd4,611e07ecdcc96256ae8d5b80,611e71a809d3c2d70610d6e8,0.4146,
,,,,,,0,219,219,229,1,X,8, ,2,6,,2500,2.5,ben,001,2021-08-19_15h59.46.137,natb3,2021.2.3,Win32,60.07449237,60950e597e2a55a2f6b45bd4,611e07ecdcc96256ae8d5b80,611e71a809d3c2d70610d6e8,,
,,,,space,,0,220,220,149,1,R, , , , ,space,2000,2,ben,001,2021-08-19_15h59.46.137,natb3,2021.2.3,Win32,60.07449237,60950e597e2a55a2f6b45bd4,611e07ecdcc96256ae8d5b80,611e71a809d3c2d70610d6e8,0.4138,
,,,,space,,0,221,221,298,1,I, , , , ,space,2000,2,ben,001,2021-08-19_15h59.46.137,natb3,2021.2.3,Win32,60.07449237,60950e597e2a55a2f6b45bd4,611e07ecdcc96256ae8d5b80,611e71a809d3c2d70610d6e8,0.4006,
,,,,space,,0,222,222,106,1,T, , , , ,space,1500,1.5,ben,001,2021-08-19_15h59.46.137,natb3,2021.2.3,Win32,60.07449237,60950e597e2a55a2f6b45bd4,611e07ecdcc96256ae8d5b80,611e71a809d3c2d70610d6e8,0.7708,
,,,,space,,0,223,223,309,1,H, , , , ,space,2500,2.5,ben,001,2021-08-19_15h59.46.137,natb3,2021.2.3,Win32,60.07449237,60950e597e2a55a2f6b45bd4,611e07ecdcc96256ae8d5b80,611e71a809d3c2d70610d6e8,0.3308,
,,,,,,0,224,224,335,1,P,,,,,space,1500,1.5,ben,001,2021-08-19_15h59.46.137,natb3,2021.2.3,Win32,60.07449237,60950e597e2a55a2f6b45bd4,611e07ecdcc96256ae8d5b80,611e71a809d3c2d70610d6e8,,
,,,,space,,0,225,225,108,1,Y, , , , ,space,2500,2.5,ben,001,2021-08-19_15h59.46.137,natb3,2021.2.3,Win32,60.07449237,60950e597e2a55a2f6b45bd4,611e07ecdcc96256ae8d5b80,611e71a809d3c2d70610d6e8,0.5629,
,,,,space,,0,226,226,232,1,O, , , , ,space,2500,2.5,ben,001,2021-08-19_15h59.46.137,natb3,2021.2.3,Win32,60.07449237,60950e597e2a55a2f6b45bd4,611e07ecdcc96256ae8d5b80,611e71a809d3c2d70610d6e8,0.3683,
,,,,,,0,227,227,138,1,X,8,5, ,3,,2000,2,ben,001,2021-08-19_15h59.46.137,natb3,2021.2.3,Win32,60.07449237,60950e597e2a55a2f6b45bd4,611e07ecdcc96256ae8d5b80,611e71a809d3c2d70610d6e8,,
,,,,space,,0,228,228,61,1,C, , , , ,space,2000,2,ben,001,2021-08-19_15h59.46.137,natb3,2021.2.3,Win32,60.07449237,60950e597e2a55a2f6b45bd4,611e07ecdcc96256ae8d5b80,611e71a809d3c2d70610d6e8,0.6228,
,,,,,,0,229,229,323,1,M, , , , ,space,2500,2.5,ben,001,2021-08-19_15h59.46.137,natb3,2021.2.3,Win32,60.07449237,60950e597e2a55a2f6b45bd4,611e07ecdcc96256ae8d5b80,611e71a809d3c2d70610d6e8,,
,,,,space,,0,230,230,186,1,U, , , , ,space,2500,2.5,ben,001,2021-08-19_15h59.46.137,natb3,2021.2.3,Win32,60.07449237,60950e597e2a55a2f6b45bd4,611e07ecdcc96256ae8d5b80,611e71a809d3c2d70610d6e8,0.5731,
,,,,,,0,231,231,18,1,X, ,2,5,8,,2500,2.5,ben,001,2021-08-19_15h59.46.137,natb3,2021.2.3,Win32,60.07449237,60950e597e2a55a2f6b45bd4,611e07ecdcc96256ae8d5b80,611e71a809d3c2d70610d6e8,,
,,,,space,,0,232,232,83,1,D, , , , ,space,2000,2,ben,001,2021-08-19_15h59.46.137,natb3,2021.2.3,Win32,60.07449237,60950e597e2a55a2f6b45bd4,611e07ecdcc96256ae8d5b80,611e71a809d3c2d70610d6e8,0.5042,
,,,,space,,0,233,233,110,1,I, , , , ,space,1500,1.5,ben,001,2021-08-19_15h59.46.137,natb3,2021.2.3,Win32,60.07449237,60950e597e2a55a2f6b45bd4,611e07ecdcc96256ae8d5b80,611e71a809d3c2d70610d6e8,0.6109,
,,,,space,,0,234,234,308,1,G, , , , ,space,1500,1.5,ben,001,2021-08-19_15h59.46.137,natb3,2021.2.3,Win32,60.07449237,60950e597e2a55a2f6b45bd4,611e07ecdcc96256ae8d5b80,611e71a809d3c2d70610d6e8,0.334,
,,,,,,0,235,235,33,1,X, , , , ,,1500,1.5,ben,001,2021-08-19_15h59.46.137,natb3,2021.2.3,Win32,60.07449237,60950e597e2a55a2f6b45bd4,611e07ecdcc96256ae8d5b80,611e71a809d3c2d70610d6e8,,
,,,,space,,0,236,236,105,1,R, , , , ,space,2500,2.5,ben,001,2021-08-19_15h59.46.137,natb3,2021.2.3,Win32,60.07449237,60950e597e2a55a2f6b45bd4,611e07ecdcc96256ae8d5b80,611e71a809d3c2d70610d6e8,0.3486,
,,,,,,0,237,237,93,1,X,5, ,7, ,,2500,2.5,ben,001,2021-08-19_15h59.46.137,natb3,2021.2.3,Win32,60.07449237,60950e597e2a55a2f6b45bd4,611e07ecdcc96256ae8d5b80,611e71a809d3c2d70610d6e8,,
,,,,space,,0,238,238,38,1,R, , , , ,space,2500,2.5,ben,001,2021-08-19_15h59.46.137,natb3,2021.2.3,Win32,60.07449237,60950e597e2a55a2f6b45bd4,611e07ecdcc96256ae8d5b80,611e71a809d3c2d70610d6e8,0.3637,
,,,,,,0,239,239,191,1,X,1, ,3,4,,2500,2.5,ben,001,2021-08-19_15h59.46.137,natb3,2021.2.3,Win32,60.07449237,60950e597e2a55a2f6b45bd4,611e07ecdcc96256ae8d5b80,611e71a809d3c2d70610d6e8,,
,,,,space,,0,240,240,290,1,W, , , , ,space,1500,1.5,ben,001,2021-08-19_15h59.46.137,natb3,2021.2.3,Win32,60.07449237,60950e597e2a55a2f6b45bd4,611e07ecdcc96256ae8d5b80,611e71a809d3c2d70610d6e8,0.3571,
,,,,,,0,241,241,15,1,X, , , , ,,1500,1.5,ben,001,2021-08-19_15h59.46.137,natb3,2021.2.3,Win32,60.07449237,60950e597e2a55a2f6b45bd4,611e07ecdcc96256ae8d5b80,611e71a809d3c2d70610d6e8,,
,,,,space,,0,242,242,113,1,W, , , , ,space,2500,2.5,ben,001,2021-08-19_15h59.46.137,natb3,2021.2.3,Win32,60.07449237,60950e597e2a55a2f6b45bd4,611e07ecdcc96256ae8d5b80,611e71a809d3c2d70610d6e8,0.4974,
,,,,space,,0,243,243,132,1,H, , , , ,space,2500,2.5,ben,001,2021-08-19_15h59.46.137,natb3,2021.2.3,Win32,60.07449237,60950e597e2a55a2f6b45bd4,611e07ecdcc96256ae8d5b80,611e71a809d3c2d70610d6e8,0.6481,
,,,,,,0,244,244,271,1,X, , , , ,,2500,2.5,ben,001,2021-08-19_15h59.46.137,natb3,2021.2.3,Win32,60.07449237,60950e597e2a55a2f6b45bd4,611e07ecdcc96256ae8d5b80,611e71a809d3c2d70610d6e8,,
,,,,,,0,245,245,5,1,T, , , , ,space,2000,2,ben,001,2021-08-19_15h59.46.137,natb3,2021.2.3,Win32,60.07449237,60950e597e2a55a2f6b45bd4,611e07ecdcc96256ae8d5b80,611e71a809d3c2d70610d6e8,,
,,,,space,,0,246,246,58,1,L, , , , ,space,2000,2,ben,001,2021-08-19_15h59.46.137,natb3,2021.2.3,Win32,60.07449237,60950e597e2a55a2f6b45bd4,611e07ecdcc96256ae8d5b80,611e71a809d3c2d70610d6e8,0.4322,
,,,,space,,0,247,247,162,1,X,1,6, ,2,,1500,1.5,ben,001,2021-08-19_15h59.46.137,natb3,2021.2.3,Win32,60.07449237,60950e597e2a55a2f6b45bd4,611e07ecdcc96256ae8d5b80,611e71a809d3c2d70610d6e8,0.6655,
,,,,,,0,248,248,311,1,X,1,2,7,3,,2500,2.5,ben,001,2021-08-19_15h59.46.137,natb3,2021.2.3,Win32,60.07449237,60950e597e2a55a2f6b45bd4,611e07ecdcc96256ae8d5b80,611e71a809d3c2d70610d6e8,,
,,,,space,,0,249,249,103,1,W, , , , ,space,2000,2,ben,001,2021-08-19_15h59.46.137,natb3,2021.2.3,Win32,60.07449237,60950e597e2a55a2f6b45bd4,611e07ecdcc96256ae8d5b80,611e71a809d3c2d70610d6e8,0.439,
,,,,space,,0,250,250,14,1,S, , , , ,space,2500,2.5,ben,001,2021-08-19_15h59.46.137,natb3,2021.2.3,Win32,60.07449237,60950e597e2a55a2f6b45bd4,611e07ecdcc96256ae8d5b80,611e71a809d3c2d70610d6e8,0.472,
,,,,space,,0,251,251,64,1,N, , , , ,space,2000,2,ben,001,2021-08-19_15h59.46.137,natb3,2021.2.3,Win32,60.07449237,60950e597e2a55a2f6b45bd4,611e07ecdcc96256ae8d5b80,611e71a809d3c2d70610d6e8,0.4864,
,,,,space,,0,252,252,156,1,P, , , , ,space,1500,1.5,ben,001,2021-08-19_15h59.46.137,natb3,2021.2.3,Win32,60.07449237,60950e597e2a55a2f6b45bd4,611e07ecdcc96256ae8d5b80,611e71a809d3c2d70610d6e8,0.8656,
,,,,,,0,253,253,171,1,X, , , , ,,1500,1.5,ben,001,2021-08-19_15h59.46.137,natb3,2021.2.3,Win32,60.07449237,60950e597e2a55a2f6b45bd4,611e07ecdcc96256ae8d5b80,611e71a809d3c2d70610d6e8,,
,,,,space,,0,254,254,185,1,Y, , , , ,space,2500,2.5,ben,001,2021-08-19_15h59.46.137,natb3,2021.2.3,Win32,60.07449237,60950e597e2a55a2f6b45bd4,611e07ecdcc96256ae8d5b80,611e71a809d3c2d70610d6e8,0.3674,
,,,,space,,0,255,255,131,1,G, , , , ,space,1500,1.5,ben,001,2021-08-19_15h59.46.137,natb3,2021.2.3,Win32,60.07449237,60950e597e2a55a2f6b45bd4,611e07ecdcc96256ae8d5b80,611e71a809d3c2d70610d6e8,0.7763,
,,,,space,,0,256,256,88,1,J, , , , ,space,2500,2.5,ben,001,2021-08-19_15h59.46.137,natb3,2021.2.3,Win32,60.07449237,60950e597e2a55a2f6b45bd4,611e07ecdcc96256ae8d5b80,611e71a809d3c2d70610d6e8,0.4131,
,,,,,,0,257,257,329,1,X,3,4, ,2,,2500,2.5,ben,001,2021-08-19_15h59.46.137,natb3,2021.2.3,Win32,60.07449237,60950e597e2a55a2f6b45bd4,611e07ecdcc96256ae8d5b80,611e71a809d3c2d70610d6e8,,
,,,,space,,0,258,258,212,1,Q, , , , ,space,2500,2.5,ben,001,2021-08-19_15h59.46.137,natb3,2021.2.3,Win32,60.07449237,60950e597e2a55a2f6b45bd4,611e07ecdcc96256ae8d5b80,611e71a809d3c2d70610d6e8,0.3849,
,,,,,,0,259,259,82,1,X,4,6,1,7,,2000,2,ben,001,2021-08-19_15h59.46.137,natb3,2021.2.3,Win32,60.07449237,60950e597e2a55a2f6b45bd4,611e07ecdcc96256ae8d5b80,611e71a809d3c2d70610d6e8,,
,,,,space,,0,260,260,280,1,L, , , , ,space,1500,1.5,ben,001,2021-08-19_15h59.46.137,natb3,2021.2.3,Win32,60.07449237,60950e597e2a55a2f6b45bd4,611e07ecdcc96256ae8d5b80,611e71a809d3c2d70610d6e8,0.6169,
,,,,space,,0,261,261,71,1,R, , , , ,space,2500,2.5,ben,001,2021-08-19_15h59.46.137,natb3,2021.2.3,Win32,60.07449237,60950e597e2a55a2f6b45bd4,611e07ecdcc96256ae8d5b80,611e71a809d3c2d70610d6e8,0.3662,
,,,,space,,0,262,262,284,1,V, , , , ,space,2500,2.5,ben,001,2021-08-19_15h59.46.137,natb3,2021.2.3,Win32,60.07449237,60950e597e2a55a2f6b45bd4,611e07ecdcc96256ae8d5b80,611e71a809d3c2d70610d6e8,0.3662,
,,,,space,,0,263,263,163,1,G, , , , ,space,2500,2.5,ben,001,2021-08-19_15h59.46.137,natb3,2021.2.3,Win32,60.07449237,60950e597e2a55a2f6b45bd4,611e07ecdcc96256ae8d5b80,611e71a809d3c2d70610d6e8,0.4335,
,,,,space,,0,264,264,242,1,H, , , , ,space,2500,2.5,ben,001,2021-08-19_15h59.46.137,natb3,2021.2.3,Win32,60.07449237,60950e597e2a55a2f6b45bd4,611e07ecdcc96256ae8d5b80,611e71a809d3c2d70610d6e8,0.4205,
,,,,space,,0,265,265,157,1,A, , , , ,space,2500,2.5,ben,001,2021-08-19_15h59.46.137,natb3,2021.2.3,Win32,60.07449237,60950e597e2a55a2f6b45bd4,611e07ecdcc96256ae8d5b80,611e71a809d3c2d70610d6e8,0.4043,
,,,,space,,0,266,266,120,1,U, , , , ,space,1500,1.5,ben,001,2021-08-19_15h59.46.137,natb3,2021.2.3,Win32,60.07449237,60950e597e2a55a2f6b45bd4,611e07ecdcc96256ae8d5b80,611e71a809d3c2d70610d6e8,0.7149,
,,,,space,,0,267,267,270,1,S, , , , ,space,1500,1.5,ben,001,2021-08-19_15h59.46.137,natb3,2021.2.3,Win32,60.07449237,60950e597e2a55a2f6b45bd4,611e07ecdcc96256ae8d5b80,611e71a809d3c2d70610d6e8,0.4801,
,,,,,,0,268,268,182,1,X, , , , ,,1500,1.5,ben,001,2021-08-19_15h59.46.137,natb3,2021.2.3,Win32,60.07449237,60950e597e2a55a2f6b45bd4,611e07ecdcc96256ae8d5b80,611e71a809d3c2d70610d6e8,,
,,,,space,,0,269,269,300,1,O, , , , ,space,2500,2.5,ben,001,2021-08-19_15h59.46.137,natb3,2021.2.3,Win32,60.07449237,60950e597e2a55a2f6b45bd4,611e07ecdcc96256ae8d5b80,611e71a809d3c2d70610d6e8,0.3943,
,,,,space,,0,270,270,72,1,T, , , , ,space,1500,1.5,ben,001,2021-08-19_15h59.46.137,natb3,2021.2.3,Win32,60.07449237,60950e597e2a55a2f6b45bd4,611e07ecdcc96256ae8d5b80,611e71a809d3c2d70610d6e8,0.3465,
,,,,space,,0,271,271,177,1,M, , , , ,space,2500,2.5,ben,001,2021-08-19_15h59.46.137,natb3,2021.2.3,Win32,60.07449237,60950e597e2a55a2f6b45bd4,611e07ecdcc96256ae8d5b80,611e71a809d3c2d70610d6e8,0.3619,
,,,,space,,0,272,272,249,1,C, , , , ,space,2000,2,ben,001,2021-08-19_15h59.46.137,natb3,2021.2.3,Win32,60.07449237,60950e597e2a55a2f6b45bd4,611e07ecdcc96256ae8d5b80,611e71a809d3c2d70610d6e8,0.6042,
,,,,space,,0,273,273,2,1,E, , , , ,space,2500,2.5,ben,001,2021-08-19_15h59.46.137,natb3,2021.2.3,Win32,60.07449237,60950e597e2a55a2f6b45bd4,611e07ecdcc96256ae8d5b80,611e71a809d3c2d70610d6e8,0.5045,
,,,,space,,0,274,274,216,1,R, , , , ,space,1500,1.5,ben,001,2021-08-19_15h59.46.137,natb3,2021.2.3,Win32,60.07449237,60950e597e2a55a2f6b45bd4,611e07ecdcc96256ae8d5b80,611e71a809d3c2d70610d6e8,0.4951,
,,,,space,,0,275,275,289,1,Q, , , , ,space,2000,2,ben,001,2021-08-19_15h59.46.137,natb3,2021.2.3,Win32,60.07449237,60950e597e2a55a2f6b45bd4,611e07ecdcc96256ae8d5b80,611e71a809d3c2d70610d6e8,0.3252,
,,,,space,,0,276,276,178,1,Q, , , , ,space,1500,1.5,ben,001,2021-08-19_15h59.46.137,natb3,2021.2.3,Win32,60.07449237,60950e597e2a55a2f6b45bd4,611e07ecdcc96256ae8d5b80,611e71a809d3c2d70610d6e8,0.5144,
,,,,space,,0,277,277,257,1,W, , , , ,space,2000,2,ben,001,2021-08-19_15h59.46.137,natb3,2021.2.3,Win32,60.07449237,60950e597e2a55a2f6b45bd4,611e07ecdcc96256ae8d5b80,611e71a809d3c2d70610d6e8,0.511,
,,,,space,,0,278,278,26,1,C, , , , ,space,2000,2,ben,001,2021-08-19_15h59.46.137,natb3,2021.2.3,Win32,60.07449237,60950e597e2a55a2f6b45bd4,611e07ecdcc96256ae8d5b80,611e71a809d3c2d70610d6e8,0.7216,
,,,,space,,0,279,279,299,1,X, , , , ,,2500,2.5,ben,001,2021-08-19_15h59.46.137,natb3,2021.2.3,Win32,60.07449237,60950e597e2a55a2f6b45bd4,611e07ecdcc96256ae8d5b80,611e71a809d3c2d70610d6e8,0.4162,
,,,,space,,0,280,280,275,1,G, , , , ,space,1500,1.5,ben,001,2021-08-19_15h59.46.137,natb3,2021.2.3,Win32,60.07449237,60950e597e2a55a2f6b45bd4,611e07ecdcc96256ae8d5b80,611e71a809d3c2d70610d6e8,0.7665,
,,,,space,,0,281,281,25,1,Z, , , , ,space,2500,2.5,ben,001,2021-08-19_15h59.46.137,natb3,2021.2.3,Win32,60.07449237,60950e597e2a55a2f6b45bd4,611e07ecdcc96256ae8d5b80,611e71a809d3c2d70610d6e8,0.6124,
,,,,,,0,282,282,211,1,X, , , , ,,2500,2.5,ben,001,2021-08-19_15h59.46.137,natb3,2021.2.3,Win32,60.07449237,60950e597e2a55a2f6b45bd4,611e07ecdcc96256ae8d5b80,611e71a809d3c2d70610d6e8,,
,,,,space,,0,283,283,193,1,S, , , , ,space,2500,2.5,ben,001,2021-08-19_15h59.46.137,natb3,2021.2.3,Win32,60.07449237,60950e597e2a55a2f6b45bd4,611e07ecdcc96256ae8d5b80,611e71a809d3c2d70610d6e8,0.4609,
,,,,space,,0,284,284,303,1,A, , , , ,space,2000,2,ben,001,2021-08-19_15h59.46.137,natb3,2021.2.3,Win32,60.07449237,60950e597e2a55a2f6b45bd4,611e07ecdcc96256ae8d5b80,611e71a809d3c2d70610d6e8,0.6263,
,,,,space,,0,285,285,165,1,J, , , , ,space,2500,2.5,ben,001,2021-08-19_15h59.46.137,natb3,2021.2.3,Win32,60.07449237,60950e597e2a55a2f6b45bd4,611e07ecdcc96256ae8d5b80,611e71a809d3c2d70610d6e8,0.4094,
,,,,,,0,286,286,56,1,J, , , , ,space,1500,1.5,ben,001,2021-08-19_15h59.46.137,natb3,2021.2.3,Win32,60.07449237,60950e597e2a55a2f6b45bd4,611e07ecdcc96256ae8d5b80,611e71a809d3c2d70610d6e8,,
,,,,,,0,287,287,268,1,X,6, ,3, ,,2500,2.5,ben,001,2021-08-19_15h59.46.137,natb3,2021.2.3,Win32,60.07449237,60950e597e2a55a2f6b45bd4,611e07ecdcc96256ae8d5b80,611e71a809d3c2d70610d6e8,,
,,,,space,,0,288,288,293,1,R, , , , ,space,2500,2.5,ben,001,2021-08-19_15h59.46.137,natb3,2021.2.3,Win32,60.07449237,60950e597e2a55a2f6b45bd4,611e07ecdcc96256ae8d5b80,611e71a809d3c2d70610d6e8,0.5681,
,,,,,,0,289,289,145,1,X, , , , ,,2000,2,ben,001,2021-08-19_15h59.46.137,natb3,2021.2.3,Win32,60.07449237,60950e597e2a55a2f6b45bd4,611e07ecdcc96256ae8d5b80,611e71a809d3c2d70610d6e8,,
,,,,space,,0,290,290,301,1,P, , , , ,space,1500,1.5,ben,001,2021-08-19_15h59.46.137,natb3,2021.2.3,Win32,60.07449237,60950e597e2a55a2f6b45bd4,611e07ecdcc96256ae8d5b80,611e71a809d3c2d70610d6e8,0.8452,
,,,,,,0,291,291,263,1,X,4, ,6, ,,1500,1.5,ben,001,2021-08-19_15h59.46.137,natb3,2021.2.3,Win32,60.07449237,60950e597e2a55a2f6b45bd4,611e07ecdcc96256ae8d5b80,611e71a809d3c2d70610d6e8,,
,,,,space,,0,292,292,205,1,C, , , , ,space,2000,2,ben,001,2021-08-19_15h59.46.137,natb3,2021.2.3,Win32,60.07449237,60950e597e2a55a2f6b45bd4,611e07ecdcc96256ae8d5b80,611e71a809d3c2d70610d6e8,0.4535,
,,,,,,0,293,293,291,1,X, , , , ,,2000,2,ben,001,2021-08-19_15h59.46.137,natb3,2021.2.3,Win32,60.07449237,60950e597e2a55a2f6b45bd4,611e07ecdcc96256ae8d5b80,611e71a809d3c2d70610d6e8,,
,,,,,,0,294,294,207,1,X,9, ,2, ,,2500,2.5,ben,001,2021-08-19_15h59.46.137,natb3,2021.2.3,Win32,60.07449237,60950e597e2a55a2f6b45bd4,611e07ecdcc96256ae8d5b80,611e71a809d3c2d70610d6e8,,
,,,,space,,0,295,295,20,1,H, , , , ,space,1500,1.5,ben,001,2021-08-19_15h59.46.137,natb3,2021.2.3,Win32,60.07449237,60950e597e2a55a2f6b45bd4,611e07ecdcc96256ae8d5b80,611e71a809d3c2d70610d6e8,0.4933,
,,,,,,0,296,296,66,1,X, ,4,7, ,,2000,2,ben,001,2021-08-19_15h59.46.137,natb3,2021.2.3,Win32,60.07449237,60950e597e2a55a2f6b45bd4,611e07ecdcc96256ae8d5b80,611e71a809d3c2d70610d6e8,,
,,,,,,0,297,297,160,1,D, , , , ,space,1500,1.5,ben,001,2021-08-19_15h59.46.137,natb3,2021.2.3,Win32,60.07449237,60950e597e2a55a2f6b45bd4,611e07ecdcc96256ae8d5b80,611e71a809d3c2d70610d6e8,,
,,,,,,0,298,298,4,1,X, , , , ,,2000,2,ben,001,2021-08-19_15h59.46.137,natb3,2021.2.3,Win32,60.07449237,60950e597e2a55a2f6b45bd4,611e07ecdcc96256ae8d5b80,611e71a809d3c2d70610d6e8,,
,,,,space,,0,299,299,194,1,D, , , , ,space,2000,2,ben,001,2021-08-19_15h59.46.137,natb3,2021.2.3,Win32,60.07449237,60950e597e2a55a2f6b45bd4,611e07ecdcc96256ae8d5b80,611e71a809d3c2d70610d6e8,0.3858,
,,,,,,0,300,300,129,1,X,2,3,5, ,,1500,1.5,ben,001,2021-08-19_15h59.46.137,natb3,2021.2.3,Win32,60.07449237,60950e597e2a55a2f6b45bd4,611e07ecdcc96256ae8d5b80,611e71a809d3c2d70610d6e8,,
,,,,space,,0,301,301,235,1,A, , , , ,space,1500,1.5,ben,001,2021-08-19_15h59.46.137,natb3,2021.2.3,Win32,60.07449237,60950e597e2a55a2f6b45bd4,611e07ecdcc96256ae8d5b80,611e71a809d3c2d70610d6e8,0.5155,
,,,,,,0,302,302,30,1,N, , , , ,space,2500,2.5,ben,001,2021-08-19_15h59.46.137,natb3,2021.2.3,Win32,60.07449237,60950e597e2a55a2f6b45bd4,611e07ecdcc96256ae8d5b80,611e71a809d3c2d70610d6e8,,
,,,,space,,0,303,303,184,1,T, , , , ,space,2000,2,ben,001,2021-08-19_15h59.46.137,natb3,2021.2.3,Win32,60.07449237,60950e597e2a55a2f6b45bd4,611e07ecdcc96256ae8d5b80,611e71a809d3c2d70610d6e8,0.9493,
,,,,,,0,304,304,259,1,X,8, , ,3,,2500,2.5,ben,001,2021-08-19_15h59.46.137,natb3,2021.2.3,Win32,60.07449237,60950e597e2a55a2f6b45bd4,611e07ecdcc96256ae8d5b80,611e71a809d3c2d70610d6e8,,
,,,,,,0,305,305,320,1,B, , , , ,space,1500,1.5,ben,001,2021-08-19_15h59.46.137,natb3,2021.2.3,Win32,60.07449237,60950e597e2a55a2f6b45bd4,611e07ecdcc96256ae8d5b80,611e71a809d3c2d70610d6e8,,
,,,,,,0,306,306,7,1,X, , , , ,,1500,1.5,ben,001,2021-08-19_15h59.46.137,natb3,2021.2.3,Win32,60.07449237,60950e597e2a55a2f6b45bd4,611e07ecdcc96256ae8d5b80,611e71a809d3c2d70610d6e8,,
,,,,space,,0,307,307,251,1,B, , , , ,space,1500,1.5,ben,001,2021-08-19_15h59.46.137,natb3,2021.2.3,Win32,60.07449237,60950e597e2a55a2f6b45bd4,611e07ecdcc96256ae8d5b80,611e71a809d3c2d70610d6e8,0.3998,
,,,,space,,0,308,308,127,1,S, , , , ,space,2500,2.5,ben,001,2021-08-19_15h59.46.137,natb3,2021.2.3,Win32,60.07449237,60950e597e2a55a2f6b45bd4,611e07ecdcc96256ae8d5b80,611e71a809d3c2d70610d6e8,0.4114,
,,,,space,,0,309,309,237,1,S, , , , ,space,1500,1.5,ben,001,2021-08-19_15h59.46.137,natb3,2021.2.3,Win32,60.07449237,60950e597e2a55a2f6b45bd4,611e07ecdcc96256ae8d5b80,611e71a809d3c2d70610d6e8,0.5178,
,,,,,,0,310,310,313,1,X, , , , ,,2500,2.5,ben,001,2021-08-19_15h59.46.137,natb3,2021.2.3,Win32,60.07449237,60950e597e2a55a2f6b45bd4,611e07ecdcc96256ae8d5b80,611e71a809d3c2d70610d6e8,,
,,,,,,0,311,311,175,1,X,7, ,4,2,,1500,1.5,ben,001,2021-08-19_15h59.46.137,natb3,2021.2.3,Win32,60.07449237,60950e597e2a55a2f6b45bd4,611e07ecdcc96256ae8d5b80,611e71a809d3c2d70610d6e8,,
,,,,space,,0,312,312,274,1,F, , , , ,space,2000,2,ben,001,2021-08-19_15h59.46.137,natb3,2021.2.3,Win32,60.07449237,60950e597e2a55a2f6b45bd4,611e07ecdcc96256ae8d5b80,611e71a809d3c2d70610d6e8,0.3814,
,,,,space,,0,313,313,209,1,N, , , , ,space,2000,2,ben,001,2021-08-19_15h59.46.137,natb3,2021.2.3,Win32,60.07449237,60950e597e2a55a2f6b45bd4,611e07ecdcc96256ae8d5b80,611e71a809d3c2d70610d6e8,0.5099,
,,,,space,,0,314,314,173,1,V, , , , ,space,1500,1.5,ben,001,2021-08-19_15h59.46.137,natb3,2021.2.3,Win32,60.07449237,60950e597e2a55a2f6b45bd4,611e07ecdcc96256ae8d5b80,611e71a809d3c2d70610d6e8,0.4673,
,,,,space,,0,315,315,214,1,W, , , , ,space,2000,2,ben,001,2021-08-19_15h59.46.137,natb3,2021.2.3,Win32,60.07449237,60950e597e2a55a2f6b45bd4,611e07ecdcc96256ae8d5b80,611e71a809d3c2d70610d6e8,0.3994,
,,,,space,,0,316,316,245,1,K, , , , ,space,2000,2,ben,001,2021-08-19_15h59.46.137,natb3,2021.2.3,Win32,60.07449237,60950e597e2a55a2f6b45bd4,611e07ecdcc96256ae8d5b80,611e71a809d3c2d70610d6e8,0.4695,
,,,,space,,0,317,317,136,1,Z, , , , ,space,2500,2.5,ben,001,2021-08-19_15h59.46.137,natb3,2021.2.3,Win32,60.07449237,60950e597e2a55a2f6b45bd4,611e07ecdcc96256ae8d5b80,611e71a809d3c2d70610d6e8,0.6882,
,,,,space,,0,318,318,260,1,R, , , , ,space,2000,2,ben,001,2021-08-19_15h59.46.137,natb3,2021.2.3,Win32,60.07449237,60950e597e2a55a2f6b45bd4,611e07ecdcc96256ae8d5b80,611e71a809d3c2d70610d6e8,0.5442,
,,,,space,,0,319,319,223,1,Q, , , , ,space,2000,2,ben,001,2021-08-19_15h59.46.137,natb3,2021.2.3,Win32,60.07449237,60950e597e2a55a2f6b45bd4,611e07ecdcc96256ae8d5b80,611e71a809d3c2d70610d6e8,0.4312,
,,,,space,,0,320,320,63,1,B, , , , ,space,2000,2,ben,001,2021-08-19_15h59.46.137,natb3,2021.2.3,Win32,60.07449237,60950e597e2a55a2f6b45bd4,611e07ecdcc96256ae8d5b80,611e71a809d3c2d70610d6e8,0.3777,
,,,,,,0,321,321,277,1,X,8,5, ,2,,2000,2,ben,001,2021-08-19_15h59.46.137,natb3,2021.2.3,Win32,60.07449237,60950e597e2a55a2f6b45bd4,611e07ecdcc96256ae8d5b80,611e71a809d3c2d70610d6e8,,
,,,,space,,0,322,322,19,1,G, , , , ,space,1500,1.5,ben,001,2021-08-19_15h59.46.137,natb3,2021.2.3,Win32,60.07449237,60950e597e2a55a2f6b45bd4,611e07ecdcc96256ae8d5b80,611e71a809d3c2d70610d6e8,0.4282,
,,,,space,,0,323,323,47,1,P, , , , ,space,2000,2,ben,001,2021-08-19_15h59.46.137,natb3,2021.2.3,Win32,60.07449237,60950e597e2a55a2f6b45bd4,611e07ecdcc96256ae8d5b80,611e71a809d3c2d70610d6e8,0.3728,
,,,,space,,0,324,324,314,1,L, , , , ,space,1500,1.5,ben,001,2021-08-19_15h59.46.137,natb3,2021.2.3,Win32,60.07449237,60950e597e2a55a2f6b45bd4,611e07ecdcc96256ae8d5b80,611e71a809d3c2d70610d6e8,0.4592,
,,,,,,0,325,325,74,1,X, ,4,3,2,,1500,1.5,ben,001,2021-08-19_15h59.46.137,natb3,2021.2.3,Win32,60.07449237,60950e597e2a55a2f6b45bd4,611e07ecdcc96256ae8d5b80,611e71a809d3c2d70610d6e8,,
,,,,,,0,326,326,218,1,X,1,3, ,8,,1500,1.5,ben,001,2021-08-19_15h59.46.137,natb3,2021.2.3,Win32,60.07449237,60950e597e2a55a2f6b45bd4,611e07ecdcc96256ae8d5b80,611e71a809d3c2d70610d6e8,,
,,,,space,,0,327,327,104,1,E, , , , ,space,2000,2,ben,001,2021-08-19_15h59.46.137,natb3,2021.2.3,Win32,60.07449237,60950e597e2a55a2f6b45bd4,611e07ecdcc96256ae8d5b80,611e71a809d3c2d70610d6e8,0.4336,
,,,,space,,0,328,328,172,1,C, , , , ,space,1500,1.5,ben,001,2021-08-19_15h59.46.137,natb3,2021.2.3,Win32,60.07449237,60950e597e2a55a2f6b45bd4,611e07ecdcc96256ae8d5b80,611e71a809d3c2d70610d6e8,0.7335,
,,,,space,,0,329,329,3,1,R, , , , ,space,2000,2,ben,001,2021-08-19_15h59.46.137,natb3,2021.2.3,Win32,60.07449237,60950e597e2a55a2f6b45bd4,611e07ecdcc96256ae8d5b80,611e71a809d3c2d70610d6e8,0.3963,
,,,,space,,0,330,330,199,1,J, , , , ,space,2500,2.5,ben,001,2021-08-19_15h59.46.137,natb3,2021.2.3,Win32,60.07449237,60950e597e2a55a2f6b45bd4,611e07ecdcc96256ae8d5b80,611e71a809d3c2d70610d6e8,0.423,
,,,,,,0,331,331,195,1,X, , , , ,,1500,1.5,ben,001,2021-08-19_15h59.46.137,natb3,2021.2.3,Win32,60.07449237,60950e597e2a55a2f6b45bd4,611e07ecdcc96256ae8d5b80,611e71a809d3c2d70610d6e8,,
,,,,space,,0,332,332,285,1,B, , , , ,space,1500,1.5,ben,001,2021-08-19_15h59.46.137,natb3,2021.2.3,Win32,60.07449237,60950e597e2a55a2f6b45bd4,611e07ecdcc96256ae8d5b80,611e71a809d3c2d70610d6e8,0.3813,
,,,,space,,0,333,333,50,1,D, , , , ,space,1500,1.5,ben,001,2021-08-19_15h59.46.137,natb3,2021.2.3,Win32,60.07449237,60950e597e2a55a2f6b45bd4,611e07ecdcc96256ae8d5b80,611e71a809d3c2d70610d6e8,0.3714,
,,,,,,0,334,334,179,1,X, ,9, ,2,,1500,1.5,ben,001,2021-08-19_15h59.46.137,natb3,2021.2.3,Win32,60.07449237,60950e597e2a55a2f6b45bd4,611e07ecdcc96256ae8d5b80,611e71a809d3c2d70610d6e8,,
,,,,space,,0,335,335,288,1,M, , , , ,space,1500,1.5,ben,001,2021-08-19_15h59.46.137,natb3,2021.2.3,Win32,60.07449237,60950e597e2a55a2f6b45bd4,611e07ecdcc96256ae8d5b80,611e71a809d3c2d70610d6e8,0.4756,
