key_resp_2.keys,key_resp_2.rt,key_resp_3.keys,key_resp_3.rt,key_resp.keys,key_resp_4.keys,trials.thisRepN,trials.thisTrialN,trials.thisN,trials.thisIndex,trials.ran,stimulus,distractor1,distractor2,distractor3,distractor4,CorrAns,isi_duration,isi_dur_in_seconds,participant,session,date,expName,psychopyVersion,OS,frameRate,PROLIFIC_PID,STUDY_ID,SESSION_ID,key_resp.rt,key_resp_4.rt
return,13.6501,space,21.4688,,,0,0,0,183,1,R, , , , ,space,1500,1.5,cesandling1503,001,2021-08-19_15h31.24.105,natb3,2021.2.3,Win32,60.07449237,611cbe6a47e57e7cfeef4436,611e07ecdcc96256ae8d5b80,611e6b2830a8e7ffd2861c07,,
,,,,,,0,1,1,263,1,X,4, ,6, ,,1500,1.5,cesandling1503,001,2021-08-19_15h31.24.105,natb3,2021.2.3,Win32,60.07449237,611cbe6a47e57e7cfeef4436,611e07ecdcc96256ae8d5b80,611e6b2830a8e7ffd2861c07,,
,,,,space,,0,2,2,83,1,D, , , , ,space,2000,2,cesandling1503,001,2021-08-19_15h31.24.105,natb3,2021.2.3,Win32,60.07449237,611cbe6a47e57e7cfeef4436,611e07ecdcc96256ae8d5b80,611e6b2830a8e7ffd2861c07,0.6154,
,,,,space,,0,3,3,177,1,M, , , , ,space,2500,2.5,cesandling1503,001,2021-08-19_15h31.24.105,natb3,2021.2.3,Win32,60.07449237,611cbe6a47e57e7cfeef4436,611e07ecdcc96256ae8d5b80,611e6b2830a8e7ffd2861c07,0.4828,
,,,,,,0,4,4,182,1,X, , , , ,,1500,1.5,cesandling1503,001,2021-08-19_15h31.24.105,natb3,2021.2.3,Win32,60.07449237,611cbe6a47e57e7cfeef4436,611e07ecdcc96256ae8d5b80,611e6b2830a8e7ffd2861c07,,
,,,,space,,0,5,5,246,1,L, , , , ,space,2500,2.5,cesandling1503,001,2021-08-19_15h31.24.105,natb3,2021.2.3,Win32,60.07449237,611cbe6a47e57e7cfeef4436,611e07ecdcc96256ae8d5b80,611e6b2830a8e7ffd2861c07,0.5331,
,,,,,,0,6,6,322,1,X, , ,1,6,,2000,2,cesandling1503,001,2021-08-19_15h31.24.105,natb3,2021.2.3,Win32,60.07449237,611cbe6a47e57e7cfeef4436,611e07ecdcc96256ae8d5b80,611e6b2830a8e7ffd2861c07,,
,,,,,,0,7,7,129,1,X,2,3,5, ,,1500,1.5,cesandling1503,001,2021-08-19_15h31.24.105,natb3,2021.2.3,Win32,60.07449237,611cbe6a47e57e7cfeef4436,611e07ecdcc96256ae8d5b80,611e6b2830a8e7ffd2861c07,,
,,,,,,0,8,8,259,1,X,8, , ,3,,2500,2.5,cesandling1503,001,2021-08-19_15h31.24.105,natb3,2021.2.3,Win32,60.07449237,611cbe6a47e57e7cfeef4436,611e07ecdcc96256ae8d5b80,611e6b2830a8e7ffd2861c07,,
,,,,space,,0,9,9,45,1,O, , , , ,space,2000,2,cesandling1503,001,2021-08-19_15h31.24.105,natb3,2021.2.3,Win32,60.07449237,611cbe6a47e57e7cfeef4436,611e07ecdcc96256ae8d5b80,611e6b2830a8e7ffd2861c07,0.5921,
,,,,space,,0,10,10,308,1,G, , , , ,space,1500,1.5,cesandling1503,001,2021-08-19_15h31.24.105,natb3,2021.2.3,Win32,60.07449237,611cbe6a47e57e7cfeef4436,611e07ecdcc96256ae8d5b80,611e6b2830a8e7ffd2861c07,0.5825,
,,,,,,0,11,11,200,1,X,7, ,5,3,,1500,1.5,cesandling1503,001,2021-08-19_15h31.24.105,natb3,2021.2.3,Win32,60.07449237,611cbe6a47e57e7cfeef4436,611e07ecdcc96256ae8d5b80,611e6b2830a8e7ffd2861c07,,
,,,,space,,0,12,12,19,1,G, , , , ,space,1500,1.5,cesandling1503,001,2021-08-19_15h31.24.105,natb3,2021.2.3,Win32,60.07449237,611cbe6a47e57e7cfeef4436,611e07ecdcc96256ae8d5b80,611e6b2830a8e7ffd2861c07,0.6131,
,,,,space,,0,13,13,92,1,Z, , , , ,space,1500,1.5,cesandling1503,001,2021-08-19_15h31.24.105,natb3,2021.2.3,Win32,60.07449237,611cbe6a47e57e7cfeef4436,611e07ecdcc96256ae8d5b80,611e6b2830a8e7ffd2861c07,0.5493,
,,,,space,,0,14,14,16,1,D, , , , ,space,1500,1.5,cesandling1503,001,2021-08-19_15h31.24.105,natb3,2021.2.3,Win32,60.07449237,611cbe6a47e57e7cfeef4436,611e07ecdcc96256ae8d5b80,611e6b2830a8e7ffd2861c07,0.4708,
,,,,space,,0,15,15,202,1,L, , , , ,space,2500,2.5,cesandling1503,001,2021-08-19_15h31.24.105,natb3,2021.2.3,Win32,60.07449237,611cbe6a47e57e7cfeef4436,611e07ecdcc96256ae8d5b80,611e6b2830a8e7ffd2861c07,0.4907,
,,,,,,0,16,16,195,1,X, , , , ,,1500,1.5,cesandling1503,001,2021-08-19_15h31.24.105,natb3,2021.2.3,Win32,60.07449237,611cbe6a47e57e7cfeef4436,611e07ecdcc96256ae8d5b80,611e6b2830a8e7ffd2861c07,,
,,,,space,,0,17,17,323,1,M, , , , ,space,2500,2.5,cesandling1503,001,2021-08-19_15h31.24.105,natb3,2021.2.3,Win32,60.07449237,611cbe6a47e57e7cfeef4436,611e07ecdcc96256ae8d5b80,611e6b2830a8e7ffd2861c07,0.4974,
,,,,space,,0,18,18,261,1,T, , , , ,space,2000,2,cesandling1503,001,2021-08-19_15h31.24.105,natb3,2021.2.3,Win32,60.07449237,611cbe6a47e57e7cfeef4436,611e07ecdcc96256ae8d5b80,611e6b2830a8e7ffd2861c07,0.4392,
,,,,,,0,19,19,153,1,X,4,7, ,6,,2000,2,cesandling1503,001,2021-08-19_15h31.24.105,natb3,2021.2.3,Win32,60.07449237,611cbe6a47e57e7cfeef4436,611e07ecdcc96256ae8d5b80,611e6b2830a8e7ffd2861c07,,
,,,,space,,0,20,20,301,1,P, , , , ,space,1500,1.5,cesandling1503,001,2021-08-19_15h31.24.105,natb3,2021.2.3,Win32,60.07449237,611cbe6a47e57e7cfeef4436,611e07ecdcc96256ae8d5b80,611e6b2830a8e7ffd2861c07,0.5055,
,,,,space,,0,21,21,227,1,T, , , , ,space,1500,1.5,cesandling1503,001,2021-08-19_15h31.24.105,natb3,2021.2.3,Win32,60.07449237,611cbe6a47e57e7cfeef4436,611e07ecdcc96256ae8d5b80,611e6b2830a8e7ffd2861c07,0.5822,
,,,,,,0,22,22,102,1,X, ,6, , ,,1500,1.5,cesandling1503,001,2021-08-19_15h31.24.105,natb3,2021.2.3,Win32,60.07449237,611cbe6a47e57e7cfeef4436,611e07ecdcc96256ae8d5b80,611e6b2830a8e7ffd2861c07,,
,,,,space,,0,23,23,214,1,W, , , , ,space,2000,2,cesandling1503,001,2021-08-19_15h31.24.105,natb3,2021.2.3,Win32,60.07449237,611cbe6a47e57e7cfeef4436,611e07ecdcc96256ae8d5b80,611e6b2830a8e7ffd2861c07,0.5194,
,,,,,,0,24,24,268,1,X,6, ,3, ,,2500,2.5,cesandling1503,001,2021-08-19_15h31.24.105,natb3,2021.2.3,Win32,60.07449237,611cbe6a47e57e7cfeef4436,611e07ecdcc96256ae8d5b80,611e6b2830a8e7ffd2861c07,,
,,,,space,,0,25,25,184,1,T, , , , ,space,2000,2,cesandling1503,001,2021-08-19_15h31.24.105,natb3,2021.2.3,Win32,60.07449237,611cbe6a47e57e7cfeef4436,611e07ecdcc96256ae8d5b80,611e6b2830a8e7ffd2861c07,0.5487,
,,,,space,,0,26,26,240,1,F, , , , ,space,2500,2.5,cesandling1503,001,2021-08-19_15h31.24.105,natb3,2021.2.3,Win32,60.07449237,611cbe6a47e57e7cfeef4436,611e07ecdcc96256ae8d5b80,611e6b2830a8e7ffd2861c07,0.8367,
,,,,,,0,27,27,41,1,Y, , , , ,space,2500,2.5,cesandling1503,001,2021-08-19_15h31.24.105,natb3,2021.2.3,Win32,60.07449237,611cbe6a47e57e7cfeef4436,611e07ecdcc96256ae8d5b80,611e6b2830a8e7ffd2861c07,,
,,,,,,0,28,28,325,1,X, , , , ,,2500,2.5,cesandling1503,001,2021-08-19_15h31.24.105,natb3,2021.2.3,Win32,60.07449237,611cbe6a47e57e7cfeef4436,611e07ecdcc96256ae8d5b80,611e6b2830a8e7ffd2861c07,,
,,,,space,,0,29,29,154,1,I, , , , ,space,2500,2.5,cesandling1503,001,2021-08-19_15h31.24.105,natb3,2021.2.3,Win32,60.07449237,611cbe6a47e57e7cfeef4436,611e07ecdcc96256ae8d5b80,611e6b2830a8e7ffd2861c07,0.6232,
,,,,space,,0,30,30,292,1,E, , , , ,space,2000,2,cesandling1503,001,2021-08-19_15h31.24.105,natb3,2021.2.3,Win32,60.07449237,611cbe6a47e57e7cfeef4436,611e07ecdcc96256ae8d5b80,611e6b2830a8e7ffd2861c07,0.4929,
,,,,,,0,31,31,54,1,X, , , , ,,2000,2,cesandling1503,001,2021-08-19_15h31.24.105,natb3,2021.2.3,Win32,60.07449237,611cbe6a47e57e7cfeef4436,611e07ecdcc96256ae8d5b80,611e6b2830a8e7ffd2861c07,,
,,,,space,,0,32,32,266,1,O, , , , ,space,1500,1.5,cesandling1503,001,2021-08-19_15h31.24.105,natb3,2021.2.3,Win32,60.07449237,611cbe6a47e57e7cfeef4436,611e07ecdcc96256ae8d5b80,611e6b2830a8e7ffd2861c07,0.482,
,,,,space,,0,33,33,80,1,A, , , , ,space,2000,2,cesandling1503,001,2021-08-19_15h31.24.105,natb3,2021.2.3,Win32,60.07449237,611cbe6a47e57e7cfeef4436,611e07ecdcc96256ae8d5b80,611e6b2830a8e7ffd2861c07,0.5391,
,,,,space,,0,34,34,185,1,Y, , , , ,space,2500,2.5,cesandling1503,001,2021-08-19_15h31.24.105,natb3,2021.2.3,Win32,60.07449237,611cbe6a47e57e7cfeef4436,611e07ecdcc96256ae8d5b80,611e6b2830a8e7ffd2861c07,0.5206,
,,,,space,,0,35,35,199,1,J, , , , ,space,2500,2.5,cesandling1503,001,2021-08-19_15h31.24.105,natb3,2021.2.3,Win32,60.07449237,611cbe6a47e57e7cfeef4436,611e07ecdcc96256ae8d5b80,611e6b2830a8e7ffd2861c07,0.4866,
,,,,space,,0,36,36,32,1,M, , , , ,space,1500,1.5,cesandling1503,001,2021-08-19_15h31.24.105,natb3,2021.2.3,Win32,60.07449237,611cbe6a47e57e7cfeef4436,611e07ecdcc96256ae8d5b80,611e6b2830a8e7ffd2861c07,0.5589,
,,,,space,,0,37,37,97,1,B, , , , ,space,2500,2.5,cesandling1503,001,2021-08-19_15h31.24.105,natb3,2021.2.3,Win32,60.07449237,611cbe6a47e57e7cfeef4436,611e07ecdcc96256ae8d5b80,611e6b2830a8e7ffd2861c07,0.5162,
,,,,,,0,38,38,84,1,X, , , , ,,2000,2,cesandling1503,001,2021-08-19_15h31.24.105,natb3,2021.2.3,Win32,60.07449237,611cbe6a47e57e7cfeef4436,611e07ecdcc96256ae8d5b80,611e6b2830a8e7ffd2861c07,,
,,,,space,,0,39,39,254,1,M, , , , ,space,1500,1.5,cesandling1503,001,2021-08-19_15h31.24.105,natb3,2021.2.3,Win32,60.07449237,611cbe6a47e57e7cfeef4436,611e07ecdcc96256ae8d5b80,611e6b2830a8e7ffd2861c07,0.5145,
,,,,space,,0,40,40,297,1,U, , , , ,space,2000,2,cesandling1503,001,2021-08-19_15h31.24.105,natb3,2021.2.3,Win32,60.07449237,611cbe6a47e57e7cfeef4436,611e07ecdcc96256ae8d5b80,611e6b2830a8e7ffd2861c07,0.5207,
,,,,space,,0,41,41,68,1,W, , , , ,space,2500,2.5,cesandling1503,001,2021-08-19_15h31.24.105,natb3,2021.2.3,Win32,60.07449237,611cbe6a47e57e7cfeef4436,611e07ecdcc96256ae8d5b80,611e6b2830a8e7ffd2861c07,0.4413,
,,,,space,,0,42,42,64,1,N, , , , ,space,2000,2,cesandling1503,001,2021-08-19_15h31.24.105,natb3,2021.2.3,Win32,60.07449237,611cbe6a47e57e7cfeef4436,611e07ecdcc96256ae8d5b80,611e6b2830a8e7ffd2861c07,0.4055,
,,,,space,,0,43,43,269,1,A, , , , ,space,2500,2.5,cesandling1503,001,2021-08-19_15h31.24.105,natb3,2021.2.3,Win32,60.07449237,611cbe6a47e57e7cfeef4436,611e07ecdcc96256ae8d5b80,611e6b2830a8e7ffd2861c07,0.4163,
,,,,space,,0,44,44,31,1,X, , , , ,,1500,1.5,cesandling1503,001,2021-08-19_15h31.24.105,natb3,2021.2.3,Win32,60.07449237,611cbe6a47e57e7cfeef4436,611e07ecdcc96256ae8d5b80,611e6b2830a8e7ffd2861c07,0.474,
,,,,,,0,45,45,118,1,X, , , , ,,2000,2,cesandling1503,001,2021-08-19_15h31.24.105,natb3,2021.2.3,Win32,60.07449237,611cbe6a47e57e7cfeef4436,611e07ecdcc96256ae8d5b80,611e6b2830a8e7ffd2861c07,,
,,,,space,,0,46,46,312,1,K, , , , ,space,2000,2,cesandling1503,001,2021-08-19_15h31.24.105,natb3,2021.2.3,Win32,60.07449237,611cbe6a47e57e7cfeef4436,611e07ecdcc96256ae8d5b80,611e6b2830a8e7ffd2861c07,0.5105,
,,,,space,,0,47,47,76,1,I, , , , ,space,2000,2,cesandling1503,001,2021-08-19_15h31.24.105,natb3,2021.2.3,Win32,60.07449237,611cbe6a47e57e7cfeef4436,611e07ecdcc96256ae8d5b80,611e6b2830a8e7ffd2861c07,0.5605,
,,,,space,,0,48,48,225,1,E, , , , ,space,2000,2,cesandling1503,001,2021-08-19_15h31.24.105,natb3,2021.2.3,Win32,60.07449237,611cbe6a47e57e7cfeef4436,611e07ecdcc96256ae8d5b80,611e6b2830a8e7ffd2861c07,0.5386,
,,,,space,,0,49,49,137,1,C, , , , ,space,2500,2.5,cesandling1503,001,2021-08-19_15h31.24.105,natb3,2021.2.3,Win32,60.07449237,611cbe6a47e57e7cfeef4436,611e07ecdcc96256ae8d5b80,611e6b2830a8e7ffd2861c07,0.4561,
,,,,space,,0,50,50,8,1,U, , , , ,space,1500,1.5,cesandling1503,001,2021-08-19_15h31.24.105,natb3,2021.2.3,Win32,60.07449237,611cbe6a47e57e7cfeef4436,611e07ecdcc96256ae8d5b80,611e6b2830a8e7ffd2861c07,0.5011,
,,,,space,,0,51,51,121,1,I, , , , ,space,2000,2,cesandling1503,001,2021-08-19_15h31.24.105,natb3,2021.2.3,Win32,60.07449237,611cbe6a47e57e7cfeef4436,611e07ecdcc96256ae8d5b80,611e6b2830a8e7ffd2861c07,0.599,
,,,,space,,0,52,52,1,1,W, , , , ,space,2000,2,cesandling1503,001,2021-08-19_15h31.24.105,natb3,2021.2.3,Win32,60.07449237,611cbe6a47e57e7cfeef4436,611e07ecdcc96256ae8d5b80,611e6b2830a8e7ffd2861c07,0.4162,
,,,,space,,0,53,53,260,1,R, , , , ,space,2000,2,cesandling1503,001,2021-08-19_15h31.24.105,natb3,2021.2.3,Win32,60.07449237,611cbe6a47e57e7cfeef4436,611e07ecdcc96256ae8d5b80,611e6b2830a8e7ffd2861c07,0.6808,
,,,,space,,0,54,54,6,1,Y, , , , ,space,2500,2.5,cesandling1503,001,2021-08-19_15h31.24.105,natb3,2021.2.3,Win32,60.07449237,611cbe6a47e57e7cfeef4436,611e07ecdcc96256ae8d5b80,611e6b2830a8e7ffd2861c07,0.6244,
,,,,space,,0,55,55,86,1,G, , , , ,space,2000,2,cesandling1503,001,2021-08-19_15h31.24.105,natb3,2021.2.3,Win32,60.07449237,611cbe6a47e57e7cfeef4436,611e07ecdcc96256ae8d5b80,611e6b2830a8e7ffd2861c07,0.4208,
,,,,space,,0,56,56,241,1,G, , , , ,space,2500,2.5,cesandling1503,001,2021-08-19_15h31.24.105,natb3,2021.2.3,Win32,60.07449237,611cbe6a47e57e7cfeef4436,611e07ecdcc96256ae8d5b80,611e6b2830a8e7ffd2861c07,0.4038,
,,,,space,,0,57,57,317,1,C, , , , ,space,2000,2,cesandling1503,001,2021-08-19_15h31.24.105,natb3,2021.2.3,Win32,60.07449237,611cbe6a47e57e7cfeef4436,611e07ecdcc96256ae8d5b80,611e6b2830a8e7ffd2861c07,0.4653,
,,,,,,0,58,58,148,1,X, , , , ,,2000,2,cesandling1503,001,2021-08-19_15h31.24.105,natb3,2021.2.3,Win32,60.07449237,611cbe6a47e57e7cfeef4436,611e07ecdcc96256ae8d5b80,611e6b2830a8e7ffd2861c07,,
,,,,space,,0,59,59,209,1,N, , , , ,space,2000,2,cesandling1503,001,2021-08-19_15h31.24.105,natb3,2021.2.3,Win32,60.07449237,611cbe6a47e57e7cfeef4436,611e07ecdcc96256ae8d5b80,611e6b2830a8e7ffd2861c07,0.438,
,,,,space,,0,60,60,306,1,D, , , , ,space,2000,2,cesandling1503,001,2021-08-19_15h31.24.105,natb3,2021.2.3,Win32,60.07449237,611cbe6a47e57e7cfeef4436,611e07ecdcc96256ae8d5b80,611e6b2830a8e7ffd2861c07,0.5568,
,,,,space,,0,61,61,17,1,F, , , , ,space,2500,2.5,cesandling1503,001,2021-08-19_15h31.24.105,natb3,2021.2.3,Win32,60.07449237,611cbe6a47e57e7cfeef4436,611e07ecdcc96256ae8d5b80,611e6b2830a8e7ffd2861c07,0.4538,
,,,,space,,0,62,62,59,1,Z, , , , ,space,2000,2,cesandling1503,001,2021-08-19_15h31.24.105,natb3,2021.2.3,Win32,60.07449237,611cbe6a47e57e7cfeef4436,611e07ecdcc96256ae8d5b80,611e6b2830a8e7ffd2861c07,0.4903,
,,,,space,,0,63,63,296,1,Y, , , , ,space,2500,2.5,cesandling1503,001,2021-08-19_15h31.24.105,natb3,2021.2.3,Win32,60.07449237,611cbe6a47e57e7cfeef4436,611e07ecdcc96256ae8d5b80,611e6b2830a8e7ffd2861c07,0.4659,
,,,,,,0,64,64,66,1,X, ,4,7, ,,2000,2,cesandling1503,001,2021-08-19_15h31.24.105,natb3,2021.2.3,Win32,60.07449237,611cbe6a47e57e7cfeef4436,611e07ecdcc96256ae8d5b80,611e6b2830a8e7ffd2861c07,,
,,,,,,0,65,65,277,1,X,8,5, ,2,,2000,2,cesandling1503,001,2021-08-19_15h31.24.105,natb3,2021.2.3,Win32,60.07449237,611cbe6a47e57e7cfeef4436,611e07ecdcc96256ae8d5b80,611e6b2830a8e7ffd2861c07,,
,,,,space,,0,66,66,275,1,G, , , , ,space,1500,1.5,cesandling1503,001,2021-08-19_15h31.24.105,natb3,2021.2.3,Win32,60.07449237,611cbe6a47e57e7cfeef4436,611e07ecdcc96256ae8d5b80,611e6b2830a8e7ffd2861c07,0.8549,
,,,,space,,0,67,67,85,1,F, , , , ,space,2500,2.5,cesandling1503,001,2021-08-19_15h31.24.105,natb3,2021.2.3,Win32,60.07449237,611cbe6a47e57e7cfeef4436,611e07ecdcc96256ae8d5b80,611e6b2830a8e7ffd2861c07,0.6064,
,,,,space,,0,68,68,136,1,Z, , , , ,space,2500,2.5,cesandling1503,001,2021-08-19_15h31.24.105,natb3,2021.2.3,Win32,60.07449237,611cbe6a47e57e7cfeef4436,611e07ecdcc96256ae8d5b80,611e6b2830a8e7ffd2861c07,0.8729,
,,,,space,,0,69,69,52,1,F, , , , ,space,1500,1.5,cesandling1503,001,2021-08-19_15h31.24.105,natb3,2021.2.3,Win32,60.07449237,611cbe6a47e57e7cfeef4436,611e07ecdcc96256ae8d5b80,611e6b2830a8e7ffd2861c07,0.5326,
,,,,,,0,70,70,207,1,X,9, ,2, ,,2500,2.5,cesandling1503,001,2021-08-19_15h31.24.105,natb3,2021.2.3,Win32,60.07449237,611cbe6a47e57e7cfeef4436,611e07ecdcc96256ae8d5b80,611e6b2830a8e7ffd2861c07,,
,,,,space,,0,71,71,70,1,E, , , , ,space,2500,2.5,cesandling1503,001,2021-08-19_15h31.24.105,natb3,2021.2.3,Win32,60.07449237,611cbe6a47e57e7cfeef4436,611e07ecdcc96256ae8d5b80,611e6b2830a8e7ffd2861c07,0.6701,
,,,,,,0,72,72,107,1,X,9,3, ,2,,2000,2,cesandling1503,001,2021-08-19_15h31.24.105,natb3,2021.2.3,Win32,60.07449237,611cbe6a47e57e7cfeef4436,611e07ecdcc96256ae8d5b80,611e6b2830a8e7ffd2861c07,,
,,,,,,0,73,73,93,1,X,5, ,7, ,,2500,2.5,cesandling1503,001,2021-08-19_15h31.24.105,natb3,2021.2.3,Win32,60.07449237,611cbe6a47e57e7cfeef4436,611e07ecdcc96256ae8d5b80,611e6b2830a8e7ffd2861c07,,
,,,,space,,0,74,74,10,1,O, , , , ,space,2000,2,cesandling1503,001,2021-08-19_15h31.24.105,natb3,2021.2.3,Win32,60.07449237,611cbe6a47e57e7cfeef4436,611e07ecdcc96256ae8d5b80,611e6b2830a8e7ffd2861c07,0.4872,
,,,,space,,0,75,75,109,1,U, , , , ,space,1500,1.5,cesandling1503,001,2021-08-19_15h31.24.105,natb3,2021.2.3,Win32,60.07449237,611cbe6a47e57e7cfeef4436,611e07ecdcc96256ae8d5b80,611e6b2830a8e7ffd2861c07,0.5328,
,,,,,,0,76,76,218,1,X,1,3, ,8,,1500,1.5,cesandling1503,001,2021-08-19_15h31.24.105,natb3,2021.2.3,Win32,60.07449237,611cbe6a47e57e7cfeef4436,611e07ecdcc96256ae8d5b80,611e6b2830a8e7ffd2861c07,,
,,,,,,0,77,77,43,1,X, ,6, ,2,,2500,2.5,cesandling1503,001,2021-08-19_15h31.24.105,natb3,2021.2.3,Win32,60.07449237,611cbe6a47e57e7cfeef4436,611e07ecdcc96256ae8d5b80,611e6b2830a8e7ffd2861c07,,
,,,,space,,0,78,78,186,1,U, , , , ,space,2500,2.5,cesandling1503,001,2021-08-19_15h31.24.105,natb3,2021.2.3,Win32,60.07449237,611cbe6a47e57e7cfeef4436,611e07ecdcc96256ae8d5b80,611e6b2830a8e7ffd2861c07,0.7483,
,,,,,,0,79,79,4,1,X, , , , ,,2000,2,cesandling1503,001,2021-08-19_15h31.24.105,natb3,2021.2.3,Win32,60.07449237,611cbe6a47e57e7cfeef4436,611e07ecdcc96256ae8d5b80,611e6b2830a8e7ffd2861c07,,
,,,,space,,0,80,80,221,1,I, , , , ,space,2500,2.5,cesandling1503,001,2021-08-19_15h31.24.105,natb3,2021.2.3,Win32,60.07449237,611cbe6a47e57e7cfeef4436,611e07ecdcc96256ae8d5b80,611e6b2830a8e7ffd2861c07,0.4895,
,,,,space,,0,81,81,164,1,H, , , , ,space,2500,2.5,cesandling1503,001,2021-08-19_15h31.24.105,natb3,2021.2.3,Win32,60.07449237,611cbe6a47e57e7cfeef4436,611e07ecdcc96256ae8d5b80,611e6b2830a8e7ffd2861c07,0.4658,
,,,,space,,0,82,82,94,1,C, , , , ,space,2000,2,cesandling1503,001,2021-08-19_15h31.24.105,natb3,2021.2.3,Win32,60.07449237,611cbe6a47e57e7cfeef4436,611e07ecdcc96256ae8d5b80,611e6b2830a8e7ffd2861c07,0.5749,
,,,,space,,0,83,83,36,1,W, , , , ,space,2000,2,cesandling1503,001,2021-08-19_15h31.24.105,natb3,2021.2.3,Win32,60.07449237,611cbe6a47e57e7cfeef4436,611e07ecdcc96256ae8d5b80,611e6b2830a8e7ffd2861c07,0.5423,
,,,,space,,0,84,84,67,1,Q, , , , ,space,2000,2,cesandling1503,001,2021-08-19_15h31.24.105,natb3,2021.2.3,Win32,60.07449237,611cbe6a47e57e7cfeef4436,611e07ecdcc96256ae8d5b80,611e6b2830a8e7ffd2861c07,0.6576,
,,,,,,0,85,85,318,1,X, , , , ,,1500,1.5,cesandling1503,001,2021-08-19_15h31.24.105,natb3,2021.2.3,Win32,60.07449237,611cbe6a47e57e7cfeef4436,611e07ecdcc96256ae8d5b80,611e6b2830a8e7ffd2861c07,,
,,,,,,0,86,86,138,1,X,8,5, ,3,,2000,2,cesandling1503,001,2021-08-19_15h31.24.105,natb3,2021.2.3,Win32,60.07449237,611cbe6a47e57e7cfeef4436,611e07ecdcc96256ae8d5b80,611e6b2830a8e7ffd2861c07,,
,,,,space,,0,87,87,193,1,S, , , , ,space,2500,2.5,cesandling1503,001,2021-08-19_15h31.24.105,natb3,2021.2.3,Win32,60.07449237,611cbe6a47e57e7cfeef4436,611e07ecdcc96256ae8d5b80,611e6b2830a8e7ffd2861c07,0.5064,
,,,,space,,0,88,88,232,1,O, , , , ,space,2500,2.5,cesandling1503,001,2021-08-19_15h31.24.105,natb3,2021.2.3,Win32,60.07449237,611cbe6a47e57e7cfeef4436,611e07ecdcc96256ae8d5b80,611e6b2830a8e7ffd2861c07,0.601,
,,,,space,,0,89,89,194,1,D, , , , ,space,2000,2,cesandling1503,001,2021-08-19_15h31.24.105,natb3,2021.2.3,Win32,60.07449237,611cbe6a47e57e7cfeef4436,611e07ecdcc96256ae8d5b80,611e6b2830a8e7ffd2861c07,0.5157,
,,,,space,,0,90,90,288,1,M, , , , ,space,1500,1.5,cesandling1503,001,2021-08-19_15h31.24.105,natb3,2021.2.3,Win32,60.07449237,611cbe6a47e57e7cfeef4436,611e07ecdcc96256ae8d5b80,611e6b2830a8e7ffd2861c07,0.5271,
,,,,space,,0,91,91,262,1,Y, , , , ,space,2500,2.5,cesandling1503,001,2021-08-19_15h31.24.105,natb3,2021.2.3,Win32,60.07449237,611cbe6a47e57e7cfeef4436,611e07ecdcc96256ae8d5b80,611e6b2830a8e7ffd2861c07,0.6364,
,,,,space,,0,92,92,61,1,C, , , , ,space,2000,2,cesandling1503,001,2021-08-19_15h31.24.105,natb3,2021.2.3,Win32,60.07449237,611cbe6a47e57e7cfeef4436,611e07ecdcc96256ae8d5b80,611e6b2830a8e7ffd2861c07,0.5662,
,,,,,,0,93,93,27,1,X,5, ,1,3,,1500,1.5,cesandling1503,001,2021-08-19_15h31.24.105,natb3,2021.2.3,Win32,60.07449237,611cbe6a47e57e7cfeef4436,611e07ecdcc96256ae8d5b80,611e6b2830a8e7ffd2861c07,,
,,,,space,,0,94,94,26,1,C, , , , ,space,2000,2,cesandling1503,001,2021-08-19_15h31.24.105,natb3,2021.2.3,Win32,60.07449237,611cbe6a47e57e7cfeef4436,611e07ecdcc96256ae8d5b80,611e6b2830a8e7ffd2861c07,0.4632,
,,,,space,,0,95,95,103,1,W, , , , ,space,2000,2,cesandling1503,001,2021-08-19_15h31.24.105,natb3,2021.2.3,Win32,60.07449237,611cbe6a47e57e7cfeef4436,611e07ecdcc96256ae8d5b80,611e6b2830a8e7ffd2861c07,0.5269,
,,,,,,0,96,96,311,1,X,1,2,7,3,,2500,2.5,cesandling1503,001,2021-08-19_15h31.24.105,natb3,2021.2.3,Win32,60.07449237,611cbe6a47e57e7cfeef4436,611e07ecdcc96256ae8d5b80,611e6b2830a8e7ffd2861c07,,
,,,,space,,0,97,97,206,1,V, , , , ,space,2000,2,cesandling1503,001,2021-08-19_15h31.24.105,natb3,2021.2.3,Win32,60.07449237,611cbe6a47e57e7cfeef4436,611e07ecdcc96256ae8d5b80,611e6b2830a8e7ffd2861c07,0.5335,
,,,,space,,0,98,98,37,1,E, , , , ,space,2500,2.5,cesandling1503,001,2021-08-19_15h31.24.105,natb3,2021.2.3,Win32,60.07449237,611cbe6a47e57e7cfeef4436,611e07ecdcc96256ae8d5b80,611e6b2830a8e7ffd2861c07,0.5289,
,,,,,,0,99,99,82,1,X,4,6,1,7,,2000,2,cesandling1503,001,2021-08-19_15h31.24.105,natb3,2021.2.3,Win32,60.07449237,611cbe6a47e57e7cfeef4436,611e07ecdcc96256ae8d5b80,611e6b2830a8e7ffd2861c07,,
,,,,,,0,100,100,171,1,X, , , , ,,1500,1.5,cesandling1503,001,2021-08-19_15h31.24.105,natb3,2021.2.3,Win32,60.07449237,611cbe6a47e57e7cfeef4436,611e07ecdcc96256ae8d5b80,611e6b2830a8e7ffd2861c07,,
,,,,space,,0,101,101,108,1,Y, , , , ,space,2500,2.5,cesandling1503,001,2021-08-19_15h31.24.105,natb3,2021.2.3,Win32,60.07449237,611cbe6a47e57e7cfeef4436,611e07ecdcc96256ae8d5b80,611e6b2830a8e7ffd2861c07,0.5686,
,,,,space,,0,102,102,115,1,R, , , , ,space,1500,1.5,cesandling1503,001,2021-08-19_15h31.24.105,natb3,2021.2.3,Win32,60.07449237,611cbe6a47e57e7cfeef4436,611e07ecdcc96256ae8d5b80,611e6b2830a8e7ffd2861c07,0.7019,
,,,,space,,0,103,103,42,1,U, , , , ,space,1500,1.5,cesandling1503,001,2021-08-19_15h31.24.105,natb3,2021.2.3,Win32,60.07449237,611cbe6a47e57e7cfeef4436,611e07ecdcc96256ae8d5b80,611e6b2830a8e7ffd2861c07,0.4587,
,,,,space,,0,104,104,151,1,Y, , , , ,space,2500,2.5,cesandling1503,001,2021-08-19_15h31.24.105,natb3,2021.2.3,Win32,60.07449237,611cbe6a47e57e7cfeef4436,611e07ecdcc96256ae8d5b80,611e6b2830a8e7ffd2861c07,0.4661,
,,,,space,,0,105,105,320,1,B, , , , ,space,1500,1.5,cesandling1503,001,2021-08-19_15h31.24.105,natb3,2021.2.3,Win32,60.07449237,611cbe6a47e57e7cfeef4436,611e07ecdcc96256ae8d5b80,611e6b2830a8e7ffd2861c07,0.5361,
,,,,,,0,106,106,230,1,U, , , , ,space,1500,1.5,cesandling1503,001,2021-08-19_15h31.24.105,natb3,2021.2.3,Win32,60.07449237,611cbe6a47e57e7cfeef4436,611e07ecdcc96256ae8d5b80,611e6b2830a8e7ffd2861c07,,
,,,,space,,0,107,107,331,1,Y, , , , ,space,2500,2.5,cesandling1503,001,2021-08-19_15h31.24.105,natb3,2021.2.3,Win32,60.07449237,611cbe6a47e57e7cfeef4436,611e07ecdcc96256ae8d5b80,611e6b2830a8e7ffd2861c07,0.5516,
,,,,space,,0,108,108,242,1,H, , , , ,space,2500,2.5,cesandling1503,001,2021-08-19_15h31.24.105,natb3,2021.2.3,Win32,60.07449237,611cbe6a47e57e7cfeef4436,611e07ecdcc96256ae8d5b80,611e6b2830a8e7ffd2861c07,0.383,
,,,,space,,0,109,109,279,1,K, , , , ,space,2500,2.5,cesandling1503,001,2021-08-19_15h31.24.105,natb3,2021.2.3,Win32,60.07449237,611cbe6a47e57e7cfeef4436,611e07ecdcc96256ae8d5b80,611e6b2830a8e7ffd2861c07,0.3997,
,,,,space,,0,110,110,99,1,N, , , , ,space,2500,2.5,cesandling1503,001,2021-08-19_15h31.24.105,natb3,2021.2.3,Win32,60.07449237,611cbe6a47e57e7cfeef4436,611e07ecdcc96256ae8d5b80,611e6b2830a8e7ffd2861c07,0.4053,
,,,,space,,0,111,111,315,1,X, , , , ,,2500,2.5,cesandling1503,001,2021-08-19_15h31.24.105,natb3,2021.2.3,Win32,60.07449237,611cbe6a47e57e7cfeef4436,611e07ecdcc96256ae8d5b80,611e6b2830a8e7ffd2861c07,0.507,
,,,,space,,0,112,112,156,1,P, , , , ,space,1500,1.5,cesandling1503,001,2021-08-19_15h31.24.105,natb3,2021.2.3,Win32,60.07449237,611cbe6a47e57e7cfeef4436,611e07ecdcc96256ae8d5b80,611e6b2830a8e7ffd2861c07,0.8147,
,,,,space,,0,113,113,196,1,F, , , , ,space,1500,1.5,cesandling1503,001,2021-08-19_15h31.24.105,natb3,2021.2.3,Win32,60.07449237,611cbe6a47e57e7cfeef4436,611e07ecdcc96256ae8d5b80,611e6b2830a8e7ffd2861c07,0.4386,
,,,,space,,0,114,114,132,1,H, , , , ,space,2500,2.5,cesandling1503,001,2021-08-19_15h31.24.105,natb3,2021.2.3,Win32,60.07449237,611cbe6a47e57e7cfeef4436,611e07ecdcc96256ae8d5b80,611e6b2830a8e7ffd2861c07,0.4764,
,,,,,,0,115,115,46,1,X, , , , ,,2000,2,cesandling1503,001,2021-08-19_15h31.24.105,natb3,2021.2.3,Win32,60.07449237,611cbe6a47e57e7cfeef4436,611e07ecdcc96256ae8d5b80,611e6b2830a8e7ffd2861c07,,
,,,,space,,0,116,116,20,1,H, , , , ,space,1500,1.5,cesandling1503,001,2021-08-19_15h31.24.105,natb3,2021.2.3,Win32,60.07449237,611cbe6a47e57e7cfeef4436,611e07ecdcc96256ae8d5b80,611e6b2830a8e7ffd2861c07,0.4494,
,,,,space,,0,117,117,198,1,H, , , , ,space,2500,2.5,cesandling1503,001,2021-08-19_15h31.24.105,natb3,2021.2.3,Win32,60.07449237,611cbe6a47e57e7cfeef4436,611e07ecdcc96256ae8d5b80,611e6b2830a8e7ffd2861c07,0.4532,
,,,,space,,0,118,118,152,1,U, , , , ,space,2000,2,cesandling1503,001,2021-08-19_15h31.24.105,natb3,2021.2.3,Win32,60.07449237,611cbe6a47e57e7cfeef4436,611e07ecdcc96256ae8d5b80,611e6b2830a8e7ffd2861c07,0.566,
,,,,space,,0,119,119,117,1,T, , , , ,space,2500,2.5,cesandling1503,001,2021-08-19_15h31.24.105,natb3,2021.2.3,Win32,60.07449237,611cbe6a47e57e7cfeef4436,611e07ecdcc96256ae8d5b80,611e6b2830a8e7ffd2861c07,0.5482,
,,,,,,0,120,120,313,1,X, , , , ,,2500,2.5,cesandling1503,001,2021-08-19_15h31.24.105,natb3,2021.2.3,Win32,60.07449237,611cbe6a47e57e7cfeef4436,611e07ecdcc96256ae8d5b80,611e6b2830a8e7ffd2861c07,,
,,,,space,,0,121,121,298,1,I, , , , ,space,2000,2,cesandling1503,001,2021-08-19_15h31.24.105,natb3,2021.2.3,Win32,60.07449237,611cbe6a47e57e7cfeef4436,611e07ecdcc96256ae8d5b80,611e6b2830a8e7ffd2861c07,0.4994,
,,,,space,,0,122,122,50,1,D, , , , ,space,1500,1.5,cesandling1503,001,2021-08-19_15h31.24.105,natb3,2021.2.3,Win32,60.07449237,611cbe6a47e57e7cfeef4436,611e07ecdcc96256ae8d5b80,611e6b2830a8e7ffd2861c07,0.6888,
,,,,space,,0,123,123,197,1,G, , , , ,space,2500,2.5,cesandling1503,001,2021-08-19_15h31.24.105,natb3,2021.2.3,Win32,60.07449237,611cbe6a47e57e7cfeef4436,611e07ecdcc96256ae8d5b80,611e6b2830a8e7ffd2861c07,0.5495,
,,,,space,,0,124,124,0,1,Q, , , , ,space,1500,1.5,cesandling1503,001,2021-08-19_15h31.24.105,natb3,2021.2.3,Win32,60.07449237,611cbe6a47e57e7cfeef4436,611e07ecdcc96256ae8d5b80,611e6b2830a8e7ffd2861c07,0.5493,
,,,,space,,0,125,125,293,1,R, , , , ,space,2500,2.5,cesandling1503,001,2021-08-19_15h31.24.105,natb3,2021.2.3,Win32,60.07449237,611cbe6a47e57e7cfeef4436,611e07ecdcc96256ae8d5b80,611e6b2830a8e7ffd2861c07,0.5231,
,,,,,,0,126,126,116,1,X, , , , ,,2000,2,cesandling1503,001,2021-08-19_15h31.24.105,natb3,2021.2.3,Win32,60.07449237,611cbe6a47e57e7cfeef4436,611e07ecdcc96256ae8d5b80,611e6b2830a8e7ffd2861c07,,
,,,,,,0,127,127,273,1,X, , , , ,,2000,2,cesandling1503,001,2021-08-19_15h31.24.105,natb3,2021.2.3,Win32,60.07449237,611cbe6a47e57e7cfeef4436,611e07ecdcc96256ae8d5b80,611e6b2830a8e7ffd2861c07,,
,,,,,,0,128,128,7,1,X, , , , ,,1500,1.5,cesandling1503,001,2021-08-19_15h31.24.105,natb3,2021.2.3,Win32,60.07449237,611cbe6a47e57e7cfeef4436,611e07ecdcc96256ae8d5b80,611e6b2830a8e7ffd2861c07,,
,,,,space,,0,129,129,224,1,W, , , , ,space,1500,1.5,cesandling1503,001,2021-08-19_15h31.24.105,natb3,2021.2.3,Win32,60.07449237,611cbe6a47e57e7cfeef4436,611e07ecdcc96256ae8d5b80,611e6b2830a8e7ffd2861c07,0.6051,
,,,,space,,0,130,130,215,1,E, , , , ,space,2500,2.5,cesandling1503,001,2021-08-19_15h31.24.105,natb3,2021.2.3,Win32,60.07449237,611cbe6a47e57e7cfeef4436,611e07ecdcc96256ae8d5b80,611e6b2830a8e7ffd2861c07,0.5234,
,,,,space,,0,131,131,180,1,W, , , , ,space,2000,2,cesandling1503,001,2021-08-19_15h31.24.105,natb3,2021.2.3,Win32,60.07449237,611cbe6a47e57e7cfeef4436,611e07ecdcc96256ae8d5b80,611e6b2830a8e7ffd2861c07,0.6521,
,,,,,,0,132,132,203,1,X, , , , ,,2500,2.5,cesandling1503,001,2021-08-19_15h31.24.105,natb3,2021.2.3,Win32,60.07449237,611cbe6a47e57e7cfeef4436,611e07ecdcc96256ae8d5b80,611e6b2830a8e7ffd2861c07,,
,,,,space,,0,133,133,324,1,Q, , , , ,space,2000,2,cesandling1503,001,2021-08-19_15h31.24.105,natb3,2021.2.3,Win32,60.07449237,611cbe6a47e57e7cfeef4436,611e07ecdcc96256ae8d5b80,611e6b2830a8e7ffd2861c07,0.4487,
,,,,space,,0,134,134,272,1,D, , , , ,space,2000,2,cesandling1503,001,2021-08-19_15h31.24.105,natb3,2021.2.3,Win32,60.07449237,611cbe6a47e57e7cfeef4436,611e07ecdcc96256ae8d5b80,611e6b2830a8e7ffd2861c07,0.5036,
,,,,space,,0,135,135,326,1,W, , , , ,space,2000,2,cesandling1503,001,2021-08-19_15h31.24.105,natb3,2021.2.3,Win32,60.07449237,611cbe6a47e57e7cfeef4436,611e07ecdcc96256ae8d5b80,611e6b2830a8e7ffd2861c07,0.3984,
,,,,space,,0,136,136,14,1,S, , , , ,space,2500,2.5,cesandling1503,001,2021-08-19_15h31.24.105,natb3,2021.2.3,Win32,60.07449237,611cbe6a47e57e7cfeef4436,611e07ecdcc96256ae8d5b80,611e6b2830a8e7ffd2861c07,0.4748,
,,,,space,,0,137,137,106,1,T, , , , ,space,1500,1.5,cesandling1503,001,2021-08-19_15h31.24.105,natb3,2021.2.3,Win32,60.07449237,611cbe6a47e57e7cfeef4436,611e07ecdcc96256ae8d5b80,611e6b2830a8e7ffd2861c07,0.5568,
,,,,space,,0,138,138,5,1,T, , , , ,space,2000,2,cesandling1503,001,2021-08-19_15h31.24.105,natb3,2021.2.3,Win32,60.07449237,611cbe6a47e57e7cfeef4436,611e07ecdcc96256ae8d5b80,611e6b2830a8e7ffd2861c07,0.3999,
,,,,space,,0,139,139,3,1,R, , , , ,space,2000,2,cesandling1503,001,2021-08-19_15h31.24.105,natb3,2021.2.3,Win32,60.07449237,611cbe6a47e57e7cfeef4436,611e07ecdcc96256ae8d5b80,611e6b2830a8e7ffd2861c07,0.4364,
,,,,space,,0,140,140,131,1,G, , , , ,space,1500,1.5,cesandling1503,001,2021-08-19_15h31.24.105,natb3,2021.2.3,Win32,60.07449237,611cbe6a47e57e7cfeef4436,611e07ecdcc96256ae8d5b80,611e6b2830a8e7ffd2861c07,0.4514,
,,,,space,,0,141,141,72,1,T, , , , ,space,1500,1.5,cesandling1503,001,2021-08-19_15h31.24.105,natb3,2021.2.3,Win32,60.07449237,611cbe6a47e57e7cfeef4436,611e07ecdcc96256ae8d5b80,611e6b2830a8e7ffd2861c07,0.385,
,,,,space,,0,142,142,101,1,Q, , , , ,space,2500,2.5,cesandling1503,001,2021-08-19_15h31.24.105,natb3,2021.2.3,Win32,60.07449237,611cbe6a47e57e7cfeef4436,611e07ecdcc96256ae8d5b80,611e6b2830a8e7ffd2861c07,0.4169,
,,,,space,,0,143,143,110,1,I, , , , ,space,1500,1.5,cesandling1503,001,2021-08-19_15h31.24.105,natb3,2021.2.3,Win32,60.07449237,611cbe6a47e57e7cfeef4436,611e07ecdcc96256ae8d5b80,611e6b2830a8e7ffd2861c07,0.467,
,,,,space,,0,144,144,309,1,H, , , , ,space,2500,2.5,cesandling1503,001,2021-08-19_15h31.24.105,natb3,2021.2.3,Win32,60.07449237,611cbe6a47e57e7cfeef4436,611e07ecdcc96256ae8d5b80,611e6b2830a8e7ffd2861c07,0.5992,
,,,,space,,0,145,145,289,1,Q, , , , ,space,2000,2,cesandling1503,001,2021-08-19_15h31.24.105,natb3,2021.2.3,Win32,60.07449237,611cbe6a47e57e7cfeef4436,611e07ecdcc96256ae8d5b80,611e6b2830a8e7ffd2861c07,0.424,
,,,,,,0,146,146,302,1,X, , , , ,,2000,2,cesandling1503,001,2021-08-19_15h31.24.105,natb3,2021.2.3,Win32,60.07449237,611cbe6a47e57e7cfeef4436,611e07ecdcc96256ae8d5b80,611e6b2830a8e7ffd2861c07,,
,,,,,,0,147,147,299,1,X, , , , ,,2500,2.5,cesandling1503,001,2021-08-19_15h31.24.105,natb3,2021.2.3,Win32,60.07449237,611cbe6a47e57e7cfeef4436,611e07ecdcc96256ae8d5b80,611e6b2830a8e7ffd2861c07,,
,,,,,,0,148,148,231,1,I, , , , ,space,2500,2.5,cesandling1503,001,2021-08-19_15h31.24.105,natb3,2021.2.3,Win32,60.07449237,611cbe6a47e57e7cfeef4436,611e07ecdcc96256ae8d5b80,611e6b2830a8e7ffd2861c07,,
,,,,space,,0,149,149,81,1,S, , , , ,space,2000,2,cesandling1503,001,2021-08-19_15h31.24.105,natb3,2021.2.3,Win32,60.07449237,611cbe6a47e57e7cfeef4436,611e07ecdcc96256ae8d5b80,611e6b2830a8e7ffd2861c07,0.5991,
,,,,,,0,150,150,314,1,L, , , , ,space,1500,1.5,cesandling1503,001,2021-08-19_15h31.24.105,natb3,2021.2.3,Win32,60.07449237,611cbe6a47e57e7cfeef4436,611e07ecdcc96256ae8d5b80,611e6b2830a8e7ffd2861c07,,
,,,,space,,0,151,151,162,1,X,1,6, ,2,,1500,1.5,cesandling1503,001,2021-08-19_15h31.24.105,natb3,2021.2.3,Win32,60.07449237,611cbe6a47e57e7cfeef4436,611e07ecdcc96256ae8d5b80,611e6b2830a8e7ffd2861c07,0.3628,
,,,,,,0,152,152,294,1,T, , , , ,space,2000,2,cesandling1503,001,2021-08-19_15h31.24.105,natb3,2021.2.3,Win32,60.07449237,611cbe6a47e57e7cfeef4436,611e07ecdcc96256ae8d5b80,611e6b2830a8e7ffd2861c07,,
,,,,,,0,153,153,252,1,X,3, ,6,9,,2000,2,cesandling1503,001,2021-08-19_15h31.24.105,natb3,2021.2.3,Win32,60.07449237,611cbe6a47e57e7cfeef4436,611e07ecdcc96256ae8d5b80,611e6b2830a8e7ffd2861c07,,
,,,,,,0,154,154,105,1,R, , , , ,space,2500,2.5,cesandling1503,001,2021-08-19_15h31.24.105,natb3,2021.2.3,Win32,60.07449237,611cbe6a47e57e7cfeef4436,611e07ecdcc96256ae8d5b80,611e6b2830a8e7ffd2861c07,,
,,,,,,0,155,155,9,1,I, , , , ,space,1500,1.5,cesandling1503,001,2021-08-19_15h31.24.105,natb3,2021.2.3,Win32,60.07449237,611cbe6a47e57e7cfeef4436,611e07ecdcc96256ae8d5b80,611e6b2830a8e7ffd2861c07,,
,,,,,,0,156,156,11,1,P, , , , ,space,2500,2.5,cesandling1503,001,2021-08-19_15h31.24.105,natb3,2021.2.3,Win32,60.07449237,611cbe6a47e57e7cfeef4436,611e07ecdcc96256ae8d5b80,611e6b2830a8e7ffd2861c07,,
,,,,,,0,157,157,284,1,V, , , , ,space,2500,2.5,cesandling1503,001,2021-08-19_15h31.24.105,natb3,2021.2.3,Win32,60.07449237,611cbe6a47e57e7cfeef4436,611e07ecdcc96256ae8d5b80,611e6b2830a8e7ffd2861c07,,
,,,,,,0,158,158,319,1,V, , , , ,space,2000,2,cesandling1503,001,2021-08-19_15h31.24.105,natb3,2021.2.3,Win32,60.07449237,611cbe6a47e57e7cfeef4436,611e07ecdcc96256ae8d5b80,611e6b2830a8e7ffd2861c07,,
,,,,,,0,159,159,125,1,X, , , , ,,2000,2,cesandling1503,001,2021-08-19_15h31.24.105,natb3,2021.2.3,Win32,60.07449237,611cbe6a47e57e7cfeef4436,611e07ecdcc96256ae8d5b80,611e6b2830a8e7ffd2861c07,,
,,,,,,0,160,160,307,1,F, , , , ,space,2500,2.5,cesandling1503,001,2021-08-19_15h31.24.105,natb3,2021.2.3,Win32,60.07449237,611cbe6a47e57e7cfeef4436,611e07ecdcc96256ae8d5b80,611e6b2830a8e7ffd2861c07,,
,,,,space,,0,161,161,170,1,Z, , , , ,space,2000,2,cesandling1503,001,2021-08-19_15h31.24.105,natb3,2021.2.3,Win32,60.07449237,611cbe6a47e57e7cfeef4436,611e07ecdcc96256ae8d5b80,611e6b2830a8e7ffd2861c07,0.7069,
,,,,space,,0,162,162,62,1,V, , , , ,space,1500,1.5,cesandling1503,001,2021-08-19_15h31.24.105,natb3,2021.2.3,Win32,60.07449237,611cbe6a47e57e7cfeef4436,611e07ecdcc96256ae8d5b80,611e6b2830a8e7ffd2861c07,0.8236,
,,,,space,,0,163,163,13,1,A, , , , ,space,2000,2,cesandling1503,001,2021-08-19_15h31.24.105,natb3,2021.2.3,Win32,60.07449237,611cbe6a47e57e7cfeef4436,611e07ecdcc96256ae8d5b80,611e6b2830a8e7ffd2861c07,0.9013,
,,,,space,,0,164,164,113,1,W, , , , ,space,2500,2.5,cesandling1503,001,2021-08-19_15h31.24.105,natb3,2021.2.3,Win32,60.07449237,611cbe6a47e57e7cfeef4436,611e07ecdcc96256ae8d5b80,611e6b2830a8e7ffd2861c07,0.5826,
,,,,space,,0,165,165,87,1,H, , , , ,space,1500,1.5,cesandling1503,001,2021-08-19_15h31.24.105,natb3,2021.2.3,Win32,60.07449237,611cbe6a47e57e7cfeef4436,611e07ecdcc96256ae8d5b80,611e6b2830a8e7ffd2861c07,0.4997,
,,,,,,0,166,166,35,1,X, , , , ,,2500,2.5,cesandling1503,001,2021-08-19_15h31.24.105,natb3,2021.2.3,Win32,60.07449237,611cbe6a47e57e7cfeef4436,611e07ecdcc96256ae8d5b80,611e6b2830a8e7ffd2861c07,,
,,,,space,space,0,167,167,219,1,Y, , , , ,space,2000,2,cesandling1503,001,2021-08-19_15h31.24.105,natb3,2021.2.3,Win32,60.07449237,611cbe6a47e57e7cfeef4436,611e07ecdcc96256ae8d5b80,611e6b2830a8e7ffd2861c07,0.5162,14.8913
,,,,,,0,168,168,282,1,X, , , , ,,2500,2.5,cesandling1503,001,2021-08-19_15h31.24.105,natb3,2021.2.3,Win32,60.07449237,611cbe6a47e57e7cfeef4436,611e07ecdcc96256ae8d5b80,611e6b2830a8e7ffd2861c07,,
,,,,space,,0,169,169,208,1,B, , , , ,space,1500,1.5,cesandling1503,001,2021-08-19_15h31.24.105,natb3,2021.2.3,Win32,60.07449237,611cbe6a47e57e7cfeef4436,611e07ecdcc96256ae8d5b80,611e6b2830a8e7ffd2861c07,0.4371,
,,,,space,,0,170,170,167,1,K, , , , ,space,1500,1.5,cesandling1503,001,2021-08-19_15h31.24.105,natb3,2021.2.3,Win32,60.07449237,611cbe6a47e57e7cfeef4436,611e07ecdcc96256ae8d5b80,611e6b2830a8e7ffd2861c07,0.4193,
,,,,space,,0,171,171,58,1,L, , , , ,space,2000,2,cesandling1503,001,2021-08-19_15h31.24.105,natb3,2021.2.3,Win32,60.07449237,611cbe6a47e57e7cfeef4436,611e07ecdcc96256ae8d5b80,611e6b2830a8e7ffd2861c07,0.4161,
,,,,,,0,172,172,236,1,X,3, ,4,7,,2500,2.5,cesandling1503,001,2021-08-19_15h31.24.105,natb3,2021.2.3,Win32,60.07449237,611cbe6a47e57e7cfeef4436,611e07ecdcc96256ae8d5b80,611e6b2830a8e7ffd2861c07,,
,,,,space,,0,173,173,257,1,W, , , , ,space,2000,2,cesandling1503,001,2021-08-19_15h31.24.105,natb3,2021.2.3,Win32,60.07449237,611cbe6a47e57e7cfeef4436,611e07ecdcc96256ae8d5b80,611e6b2830a8e7ffd2861c07,0.5483,
,,,,space,,0,174,174,172,1,C, , , , ,space,1500,1.5,cesandling1503,001,2021-08-19_15h31.24.105,natb3,2021.2.3,Win32,60.07449237,611cbe6a47e57e7cfeef4436,611e07ecdcc96256ae8d5b80,611e6b2830a8e7ffd2861c07,0.4915,
,,,,space,,0,175,175,321,1,N, , , , ,space,2000,2,cesandling1503,001,2021-08-19_15h31.24.105,natb3,2021.2.3,Win32,60.07449237,611cbe6a47e57e7cfeef4436,611e07ecdcc96256ae8d5b80,611e6b2830a8e7ffd2861c07,0.7655,
,,,,space,,0,176,176,264,1,U, , , , ,space,2000,2,cesandling1503,001,2021-08-19_15h31.24.105,natb3,2021.2.3,Win32,60.07449237,611cbe6a47e57e7cfeef4436,611e07ecdcc96256ae8d5b80,611e6b2830a8e7ffd2861c07,0.5078,
,,,,,,0,177,177,233,1,X, ,2, ,5,,1500,1.5,cesandling1503,001,2021-08-19_15h31.24.105,natb3,2021.2.3,Win32,60.07449237,611cbe6a47e57e7cfeef4436,611e07ecdcc96256ae8d5b80,611e6b2830a8e7ffd2861c07,,
,,,,space,,0,178,178,176,1,N, , , , ,space,1500,1.5,cesandling1503,001,2021-08-19_15h31.24.105,natb3,2021.2.3,Win32,60.07449237,611cbe6a47e57e7cfeef4436,611e07ecdcc96256ae8d5b80,611e6b2830a8e7ffd2861c07,0.5674,
,,,,space,,0,179,179,30,1,N, , , , ,space,2500,2.5,cesandling1503,001,2021-08-19_15h31.24.105,natb3,2021.2.3,Win32,60.07449237,611cbe6a47e57e7cfeef4436,611e07ecdcc96256ae8d5b80,611e6b2830a8e7ffd2861c07,0.4401,
,,,,space,,0,180,180,63,1,B, , , , ,space,2000,2,cesandling1503,001,2021-08-19_15h31.24.105,natb3,2021.2.3,Win32,60.07449237,611cbe6a47e57e7cfeef4436,611e07ecdcc96256ae8d5b80,611e6b2830a8e7ffd2861c07,0.5657,
,,,,space,,0,181,181,235,1,A, , , , ,space,1500,1.5,cesandling1503,001,2021-08-19_15h31.24.105,natb3,2021.2.3,Win32,60.07449237,611cbe6a47e57e7cfeef4436,611e07ecdcc96256ae8d5b80,611e6b2830a8e7ffd2861c07,0.8151,
,,,,space,,0,182,182,245,1,K, , , , ,space,2000,2,cesandling1503,001,2021-08-19_15h31.24.105,natb3,2021.2.3,Win32,60.07449237,611cbe6a47e57e7cfeef4436,611e07ecdcc96256ae8d5b80,611e6b2830a8e7ffd2861c07,0.5167,
,,,,space,,0,183,183,174,1,B, , , , ,space,2500,2.5,cesandling1503,001,2021-08-19_15h31.24.105,natb3,2021.2.3,Win32,60.07449237,611cbe6a47e57e7cfeef4436,611e07ecdcc96256ae8d5b80,611e6b2830a8e7ffd2861c07,0.5159,
,,,,space,,0,184,184,155,1,O, , , , ,space,1500,1.5,cesandling1503,001,2021-08-19_15h31.24.105,natb3,2021.2.3,Win32,60.07449237,611cbe6a47e57e7cfeef4436,611e07ecdcc96256ae8d5b80,611e6b2830a8e7ffd2861c07,0.5972,
,,,,space,,0,185,185,73,1,Y, , , , ,space,2000,2,cesandling1503,001,2021-08-19_15h31.24.105,natb3,2021.2.3,Win32,60.07449237,611cbe6a47e57e7cfeef4436,611e07ecdcc96256ae8d5b80,611e6b2830a8e7ffd2861c07,0.5433,
,,,,space,,0,186,186,210,1,M, , , , ,space,1500,1.5,cesandling1503,001,2021-08-19_15h31.24.105,natb3,2021.2.3,Win32,60.07449237,611cbe6a47e57e7cfeef4436,611e07ecdcc96256ae8d5b80,611e6b2830a8e7ffd2861c07,0.4607,
,,,,space,,0,187,187,265,1,I, , , , ,space,2000,2,cesandling1503,001,2021-08-19_15h31.24.105,natb3,2021.2.3,Win32,60.07449237,611cbe6a47e57e7cfeef4436,611e07ecdcc96256ae8d5b80,611e6b2830a8e7ffd2861c07,0.5773,
,,,,space,,0,188,188,216,1,R, , , , ,space,1500,1.5,cesandling1503,001,2021-08-19_15h31.24.105,natb3,2021.2.3,Win32,60.07449237,611cbe6a47e57e7cfeef4436,611e07ecdcc96256ae8d5b80,611e6b2830a8e7ffd2861c07,0.4695,
,,,,,,0,189,189,255,1,X, , , , ,,1500,1.5,cesandling1503,001,2021-08-19_15h31.24.105,natb3,2021.2.3,Win32,60.07449237,611cbe6a47e57e7cfeef4436,611e07ecdcc96256ae8d5b80,611e6b2830a8e7ffd2861c07,,
,,,,space,,0,190,190,48,1,A, , , , ,space,2500,2.5,cesandling1503,001,2021-08-19_15h31.24.105,natb3,2021.2.3,Win32,60.07449237,611cbe6a47e57e7cfeef4436,611e07ecdcc96256ae8d5b80,611e6b2830a8e7ffd2861c07,0.4916,
,,,,space,,0,191,191,205,1,C, , , , ,space,2000,2,cesandling1503,001,2021-08-19_15h31.24.105,natb3,2021.2.3,Win32,60.07449237,611cbe6a47e57e7cfeef4436,611e07ecdcc96256ae8d5b80,611e6b2830a8e7ffd2861c07,0.6335,
,,,,space,,0,192,192,247,1,Z, , , , ,space,1500,1.5,cesandling1503,001,2021-08-19_15h31.24.105,natb3,2021.2.3,Win32,60.07449237,611cbe6a47e57e7cfeef4436,611e07ecdcc96256ae8d5b80,611e6b2830a8e7ffd2861c07,0.781,
,,,,space,,0,193,193,256,1,Q, , , , ,space,2000,2,cesandling1503,001,2021-08-19_15h31.24.105,natb3,2021.2.3,Win32,60.07449237,611cbe6a47e57e7cfeef4436,611e07ecdcc96256ae8d5b80,611e6b2830a8e7ffd2861c07,0.4521,
,,,,space,,0,194,194,226,1,R, , , , ,space,2000,2,cesandling1503,001,2021-08-19_15h31.24.105,natb3,2021.2.3,Win32,60.07449237,611cbe6a47e57e7cfeef4436,611e07ecdcc96256ae8d5b80,611e6b2830a8e7ffd2861c07,0.3879,
,,,,,,0,195,195,60,1,X,7,3,5, ,,1500,1.5,cesandling1503,001,2021-08-19_15h31.24.105,natb3,2021.2.3,Win32,60.07449237,611cbe6a47e57e7cfeef4436,611e07ecdcc96256ae8d5b80,611e6b2830a8e7ffd2861c07,,
,,,,space,,0,196,196,114,1,E, , , , ,space,2000,2,cesandling1503,001,2021-08-19_15h31.24.105,natb3,2021.2.3,Win32,60.07449237,611cbe6a47e57e7cfeef4436,611e07ecdcc96256ae8d5b80,611e6b2830a8e7ffd2861c07,0.4618,
,,,,,,0,197,197,291,1,X, , , , ,,2000,2,cesandling1503,001,2021-08-19_15h31.24.105,natb3,2021.2.3,Win32,60.07449237,611cbe6a47e57e7cfeef4436,611e07ecdcc96256ae8d5b80,611e6b2830a8e7ffd2861c07,,
,,,,space,,0,198,198,188,1,I, , , , ,space,2500,2.5,cesandling1503,001,2021-08-19_15h31.24.105,natb3,2021.2.3,Win32,60.07449237,611cbe6a47e57e7cfeef4436,611e07ecdcc96256ae8d5b80,611e6b2830a8e7ffd2861c07,0.4615,
,,,,,,0,199,199,239,1,X, , , , ,,2000,2,cesandling1503,001,2021-08-19_15h31.24.105,natb3,2021.2.3,Win32,60.07449237,611cbe6a47e57e7cfeef4436,611e07ecdcc96256ae8d5b80,611e6b2830a8e7ffd2861c07,,
,,,,space,,0,200,200,134,1,J, , , , ,space,2000,2,cesandling1503,001,2021-08-19_15h31.24.105,natb3,2021.2.3,Win32,60.07449237,611cbe6a47e57e7cfeef4436,611e07ecdcc96256ae8d5b80,611e6b2830a8e7ffd2861c07,0.6519,
,,,,space,,0,201,201,123,1,O, , , , ,space,1500,1.5,cesandling1503,001,2021-08-19_15h31.24.105,natb3,2021.2.3,Win32,60.07449237,611cbe6a47e57e7cfeef4436,611e07ecdcc96256ae8d5b80,611e6b2830a8e7ffd2861c07,0.5177,
,,,,space,,0,202,202,190,1,P, , , , ,space,2000,2,cesandling1503,001,2021-08-19_15h31.24.105,natb3,2021.2.3,Win32,60.07449237,611cbe6a47e57e7cfeef4436,611e07ecdcc96256ae8d5b80,611e6b2830a8e7ffd2861c07,0.4958,
,,,,space,,0,203,203,286,1,N, , , , ,space,1500,1.5,cesandling1503,001,2021-08-19_15h31.24.105,natb3,2021.2.3,Win32,60.07449237,611cbe6a47e57e7cfeef4436,611e07ecdcc96256ae8d5b80,611e6b2830a8e7ffd2861c07,0.6842,
,,,,space,,0,204,204,21,1,J, , , , ,space,1500,1.5,cesandling1503,001,2021-08-19_15h31.24.105,natb3,2021.2.3,Win32,60.07449237,611cbe6a47e57e7cfeef4436,611e07ecdcc96256ae8d5b80,611e6b2830a8e7ffd2861c07,0.4502,
,,,,,,0,205,205,191,1,X,1, ,3,4,,2500,2.5,cesandling1503,001,2021-08-19_15h31.24.105,natb3,2021.2.3,Win32,60.07449237,611cbe6a47e57e7cfeef4436,611e07ecdcc96256ae8d5b80,611e6b2830a8e7ffd2861c07,,
,,,,space,,0,206,206,334,1,O, , , , ,space,1500,1.5,cesandling1503,001,2021-08-19_15h31.24.105,natb3,2021.2.3,Win32,60.07449237,611cbe6a47e57e7cfeef4436,611e07ecdcc96256ae8d5b80,611e6b2830a8e7ffd2861c07,0.5931,
,,,,space,,0,207,207,34,1,Q, , , , ,space,2500,2.5,cesandling1503,001,2021-08-19_15h31.24.105,natb3,2021.2.3,Win32,60.07449237,611cbe6a47e57e7cfeef4436,611e07ecdcc96256ae8d5b80,611e6b2830a8e7ffd2861c07,0.4978,
,,,,space,,0,208,208,253,1,N, , , , ,space,2500,2.5,cesandling1503,001,2021-08-19_15h31.24.105,natb3,2021.2.3,Win32,60.07449237,611cbe6a47e57e7cfeef4436,611e07ecdcc96256ae8d5b80,611e6b2830a8e7ffd2861c07,0.4828,
,,,,space,,0,209,209,112,1,Q, , , , ,space,2500,2.5,cesandling1503,001,2021-08-19_15h31.24.105,natb3,2021.2.3,Win32,60.07449237,611cbe6a47e57e7cfeef4436,611e07ecdcc96256ae8d5b80,611e6b2830a8e7ffd2861c07,0.6163,
,,,,,,0,210,210,175,1,X,7, ,4,2,,1500,1.5,cesandling1503,001,2021-08-19_15h31.24.105,natb3,2021.2.3,Win32,60.07449237,611cbe6a47e57e7cfeef4436,611e07ecdcc96256ae8d5b80,611e6b2830a8e7ffd2861c07,,
,,,,space,,0,211,211,140,1,B, , , , ,space,2500,2.5,cesandling1503,001,2021-08-19_15h31.24.105,natb3,2021.2.3,Win32,60.07449237,611cbe6a47e57e7cfeef4436,611e07ecdcc96256ae8d5b80,611e6b2830a8e7ffd2861c07,0.4383,
,,,,space,,0,212,212,249,1,C, , , , ,space,2000,2,cesandling1503,001,2021-08-19_15h31.24.105,natb3,2021.2.3,Win32,60.07449237,611cbe6a47e57e7cfeef4436,611e07ecdcc96256ae8d5b80,611e6b2830a8e7ffd2861c07,0.4608,
,,,,,,0,213,213,23,1,X,1, ,5, ,,2000,2,cesandling1503,001,2021-08-19_15h31.24.105,natb3,2021.2.3,Win32,60.07449237,611cbe6a47e57e7cfeef4436,611e07ecdcc96256ae8d5b80,611e6b2830a8e7ffd2861c07,,
,,,,,,0,214,214,179,1,X, ,9, ,2,,1500,1.5,cesandling1503,001,2021-08-19_15h31.24.105,natb3,2021.2.3,Win32,60.07449237,611cbe6a47e57e7cfeef4436,611e07ecdcc96256ae8d5b80,611e6b2830a8e7ffd2861c07,,
,,,,,,0,215,215,287,1,X, ,2, ,9,,2000,2,cesandling1503,001,2021-08-19_15h31.24.105,natb3,2021.2.3,Win32,60.07449237,611cbe6a47e57e7cfeef4436,611e07ecdcc96256ae8d5b80,611e6b2830a8e7ffd2861c07,,
,,,,space,,0,216,216,143,1,M, , , , ,space,2500,2.5,cesandling1503,001,2021-08-19_15h31.24.105,natb3,2021.2.3,Win32,60.07449237,611cbe6a47e57e7cfeef4436,611e07ecdcc96256ae8d5b80,611e6b2830a8e7ffd2861c07,0.5158,
,,,,space,,0,217,217,304,1,S, , , , ,space,2000,2,cesandling1503,001,2021-08-19_15h31.24.105,natb3,2021.2.3,Win32,60.07449237,611cbe6a47e57e7cfeef4436,611e07ecdcc96256ae8d5b80,611e6b2830a8e7ffd2861c07,0.3746,
,,,,space,,0,218,218,2,1,E, , , , ,space,2500,2.5,cesandling1503,001,2021-08-19_15h31.24.105,natb3,2021.2.3,Win32,60.07449237,611cbe6a47e57e7cfeef4436,611e07ecdcc96256ae8d5b80,611e6b2830a8e7ffd2861c07,0.4153,
,,,,space,,0,219,219,53,1,G, , , , ,space,2500,2.5,cesandling1503,001,2021-08-19_15h31.24.105,natb3,2021.2.3,Win32,60.07449237,611cbe6a47e57e7cfeef4436,611e07ecdcc96256ae8d5b80,611e6b2830a8e7ffd2861c07,0.4676,
,,,,,,0,220,220,335,1,P,,,,,space,1500,1.5,cesandling1503,001,2021-08-19_15h31.24.105,natb3,2021.2.3,Win32,60.07449237,611cbe6a47e57e7cfeef4436,611e07ecdcc96256ae8d5b80,611e6b2830a8e7ffd2861c07,,
,,,,,,0,221,221,122,1,X,1, , ,8,,1500,1.5,cesandling1503,001,2021-08-19_15h31.24.105,natb3,2021.2.3,Win32,60.07449237,611cbe6a47e57e7cfeef4436,611e07ecdcc96256ae8d5b80,611e6b2830a8e7ffd2861c07,,
,,,,space,,0,222,222,150,1,T, , , , ,space,2500,2.5,cesandling1503,001,2021-08-19_15h31.24.105,natb3,2021.2.3,Win32,60.07449237,611cbe6a47e57e7cfeef4436,611e07ecdcc96256ae8d5b80,611e6b2830a8e7ffd2861c07,0.4642,
,,,,space,,0,223,223,161,1,F, , , , ,space,1500,1.5,cesandling1503,001,2021-08-19_15h31.24.105,natb3,2021.2.3,Win32,60.07449237,611cbe6a47e57e7cfeef4436,611e07ecdcc96256ae8d5b80,611e6b2830a8e7ffd2861c07,0.5639,
,,,,space,,0,224,224,169,1,L, , , , ,space,2500,2.5,cesandling1503,001,2021-08-19_15h31.24.105,natb3,2021.2.3,Win32,60.07449237,611cbe6a47e57e7cfeef4436,611e07ecdcc96256ae8d5b80,611e6b2830a8e7ffd2861c07,0.5823,
,,,,space,,0,225,225,119,1,Y, , , , ,space,2500,2.5,cesandling1503,001,2021-08-19_15h31.24.105,natb3,2021.2.3,Win32,60.07449237,611cbe6a47e57e7cfeef4436,611e07ecdcc96256ae8d5b80,611e6b2830a8e7ffd2861c07,0.4605,
,,,,space,,0,226,226,124,1,P, , , , ,space,2000,2,cesandling1503,001,2021-08-19_15h31.24.105,natb3,2021.2.3,Win32,60.07449237,611cbe6a47e57e7cfeef4436,611e07ecdcc96256ae8d5b80,611e6b2830a8e7ffd2861c07,0.4164,
,,,,space,,0,227,227,144,1,Q, , , , ,space,2500,2.5,cesandling1503,001,2021-08-19_15h31.24.105,natb3,2021.2.3,Win32,60.07449237,611cbe6a47e57e7cfeef4436,611e07ecdcc96256ae8d5b80,611e6b2830a8e7ffd2861c07,0.4967,
,,,,space,,0,228,228,165,1,J, , , , ,space,2500,2.5,cesandling1503,001,2021-08-19_15h31.24.105,natb3,2021.2.3,Win32,60.07449237,611cbe6a47e57e7cfeef4436,611e07ecdcc96256ae8d5b80,611e6b2830a8e7ffd2861c07,0.4159,
,,,,space,,0,229,229,29,1,B, , , , ,space,1500,1.5,cesandling1503,001,2021-08-19_15h31.24.105,natb3,2021.2.3,Win32,60.07449237,611cbe6a47e57e7cfeef4436,611e07ecdcc96256ae8d5b80,611e6b2830a8e7ffd2861c07,0.5348,
,,,,space,,0,230,230,212,1,Q, , , , ,space,2500,2.5,cesandling1503,001,2021-08-19_15h31.24.105,natb3,2021.2.3,Win32,60.07449237,611cbe6a47e57e7cfeef4436,611e07ecdcc96256ae8d5b80,611e6b2830a8e7ffd2861c07,0.4549,
,,,,space,,0,231,231,88,1,J, , , , ,space,2500,2.5,cesandling1503,001,2021-08-19_15h31.24.105,natb3,2021.2.3,Win32,60.07449237,611cbe6a47e57e7cfeef4436,611e07ecdcc96256ae8d5b80,611e6b2830a8e7ffd2861c07,0.4542,
,,,,,,0,232,232,229,1,X,8, ,2,6,,2500,2.5,cesandling1503,001,2021-08-19_15h31.24.105,natb3,2021.2.3,Win32,60.07449237,611cbe6a47e57e7cfeef4436,611e07ecdcc96256ae8d5b80,611e6b2830a8e7ffd2861c07,,
,,,,,,0,233,233,39,1,X,6,2, , ,,1500,1.5,cesandling1503,001,2021-08-19_15h31.24.105,natb3,2021.2.3,Win32,60.07449237,611cbe6a47e57e7cfeef4436,611e07ecdcc96256ae8d5b80,611e6b2830a8e7ffd2861c07,,
,,,,,,0,234,234,141,1,X,1, ,4,6,,1500,1.5,cesandling1503,001,2021-08-19_15h31.24.105,natb3,2021.2.3,Win32,60.07449237,611cbe6a47e57e7cfeef4436,611e07ecdcc96256ae8d5b80,611e6b2830a8e7ffd2861c07,,
,,,,space,,0,235,235,310,1,J, , , , ,space,2500,2.5,cesandling1503,001,2021-08-19_15h31.24.105,natb3,2021.2.3,Win32,60.07449237,611cbe6a47e57e7cfeef4436,611e07ecdcc96256ae8d5b80,611e6b2830a8e7ffd2861c07,0.5584,
,,,,space,,0,236,236,139,1,V, , , , ,space,2000,2,cesandling1503,001,2021-08-19_15h31.24.105,natb3,2021.2.3,Win32,60.07449237,611cbe6a47e57e7cfeef4436,611e07ecdcc96256ae8d5b80,611e6b2830a8e7ffd2861c07,0.4827,
,,,,space,,0,237,237,281,1,Z, , , , ,space,1500,1.5,cesandling1503,001,2021-08-19_15h31.24.105,natb3,2021.2.3,Win32,60.07449237,611cbe6a47e57e7cfeef4436,611e07ecdcc96256ae8d5b80,611e6b2830a8e7ffd2861c07,0.6074,
,,,,space,,0,238,238,305,1,X, , , , ,,1500,1.5,cesandling1503,001,2021-08-19_15h31.24.105,natb3,2021.2.3,Win32,60.07449237,611cbe6a47e57e7cfeef4436,611e07ecdcc96256ae8d5b80,611e6b2830a8e7ffd2861c07,0.4993,
,,,,space,,0,239,239,234,1,P, , , , ,space,2000,2,cesandling1503,001,2021-08-19_15h31.24.105,natb3,2021.2.3,Win32,60.07449237,611cbe6a47e57e7cfeef4436,611e07ecdcc96256ae8d5b80,611e6b2830a8e7ffd2861c07,0.4661,
,,,,,,0,240,240,280,1,L, , , , ,space,1500,1.5,cesandling1503,001,2021-08-19_15h31.24.105,natb3,2021.2.3,Win32,60.07449237,611cbe6a47e57e7cfeef4436,611e07ecdcc96256ae8d5b80,611e6b2830a8e7ffd2861c07,,
,,,,space,,0,241,241,222,1,O, , , , ,space,2000,2,cesandling1503,001,2021-08-19_15h31.24.105,natb3,2021.2.3,Win32,60.07449237,611cbe6a47e57e7cfeef4436,611e07ecdcc96256ae8d5b80,611e6b2830a8e7ffd2861c07,0.4712,
,,,,space,,0,242,242,40,1,T, , , , ,space,1500,1.5,cesandling1503,001,2021-08-19_15h31.24.105,natb3,2021.2.3,Win32,60.07449237,611cbe6a47e57e7cfeef4436,611e07ecdcc96256ae8d5b80,611e6b2830a8e7ffd2861c07,0.4842,
,,,,space,,0,243,243,49,1,S, , , , ,space,1500,1.5,cesandling1503,001,2021-08-19_15h31.24.105,natb3,2021.2.3,Win32,60.07449237,611cbe6a47e57e7cfeef4436,611e07ecdcc96256ae8d5b80,611e6b2830a8e7ffd2861c07,0.5157,
,,,,space,,0,244,244,270,1,S, , , , ,space,1500,1.5,cesandling1503,001,2021-08-19_15h31.24.105,natb3,2021.2.3,Win32,60.07449237,611cbe6a47e57e7cfeef4436,611e07ecdcc96256ae8d5b80,611e6b2830a8e7ffd2861c07,0.4365,
,,,,space,,0,245,245,22,1,K, , , , ,space,2000,2,cesandling1503,001,2021-08-19_15h31.24.105,natb3,2021.2.3,Win32,60.07449237,611cbe6a47e57e7cfeef4436,611e07ecdcc96256ae8d5b80,611e6b2830a8e7ffd2861c07,0.6149,
,,,,space,,0,246,246,95,1,V, , , , ,space,1500,1.5,cesandling1503,001,2021-08-19_15h31.24.105,natb3,2021.2.3,Win32,60.07449237,611cbe6a47e57e7cfeef4436,611e07ecdcc96256ae8d5b80,611e6b2830a8e7ffd2861c07,0.6078,
,,,,space,,0,247,247,71,1,R, , , , ,space,2500,2.5,cesandling1503,001,2021-08-19_15h31.24.105,natb3,2021.2.3,Win32,60.07449237,611cbe6a47e57e7cfeef4436,611e07ecdcc96256ae8d5b80,611e6b2830a8e7ffd2861c07,0.5227,
,,,,,,0,248,248,78,1,X, , , , ,,2000,2,cesandling1503,001,2021-08-19_15h31.24.105,natb3,2021.2.3,Win32,60.07449237,611cbe6a47e57e7cfeef4436,611e07ecdcc96256ae8d5b80,611e6b2830a8e7ffd2861c07,,
,,,,,,0,249,249,33,1,X, , , , ,,1500,1.5,cesandling1503,001,2021-08-19_15h31.24.105,natb3,2021.2.3,Win32,60.07449237,611cbe6a47e57e7cfeef4436,611e07ecdcc96256ae8d5b80,611e6b2830a8e7ffd2861c07,,
,,,,space,,0,250,250,213,1,X, , , , ,,2500,2.5,cesandling1503,001,2021-08-19_15h31.24.105,natb3,2021.2.3,Win32,60.07449237,611cbe6a47e57e7cfeef4436,611e07ecdcc96256ae8d5b80,611e6b2830a8e7ffd2861c07,0.3837,
,,,,,,0,251,251,187,1,X, ,3,7,4,,1500,1.5,cesandling1503,001,2021-08-19_15h31.24.105,natb3,2021.2.3,Win32,60.07449237,611cbe6a47e57e7cfeef4436,611e07ecdcc96256ae8d5b80,611e6b2830a8e7ffd2861c07,,
,,,,space,,0,252,252,120,1,U, , , , ,space,1500,1.5,cesandling1503,001,2021-08-19_15h31.24.105,natb3,2021.2.3,Win32,60.07449237,611cbe6a47e57e7cfeef4436,611e07ecdcc96256ae8d5b80,611e6b2830a8e7ffd2861c07,0.4479,
,,,,space,,0,253,253,217,1,T, , , , ,space,2500,2.5,cesandling1503,001,2021-08-19_15h31.24.105,natb3,2021.2.3,Win32,60.07449237,611cbe6a47e57e7cfeef4436,611e07ecdcc96256ae8d5b80,611e6b2830a8e7ffd2861c07,0.5182,
,,,,space,,0,254,254,111,1,O, , , , ,space,2000,2,cesandling1503,001,2021-08-19_15h31.24.105,natb3,2021.2.3,Win32,60.07449237,611cbe6a47e57e7cfeef4436,611e07ecdcc96256ae8d5b80,611e6b2830a8e7ffd2861c07,0.4764,
,,,,space,,0,255,255,267,1,P, , , , ,space,2000,2,cesandling1503,001,2021-08-19_15h31.24.105,natb3,2021.2.3,Win32,60.07449237,611cbe6a47e57e7cfeef4436,611e07ecdcc96256ae8d5b80,611e6b2830a8e7ffd2861c07,0.5656,
,,,,space,,0,256,256,238,1,D, , , , ,space,1500,1.5,cesandling1503,001,2021-08-19_15h31.24.105,natb3,2021.2.3,Win32,60.07449237,611cbe6a47e57e7cfeef4436,611e07ecdcc96256ae8d5b80,611e6b2830a8e7ffd2861c07,0.5324,
,,,,space,,0,257,257,57,1,K, , , , ,space,2500,2.5,cesandling1503,001,2021-08-19_15h31.24.105,natb3,2021.2.3,Win32,60.07449237,611cbe6a47e57e7cfeef4436,611e07ecdcc96256ae8d5b80,611e6b2830a8e7ffd2861c07,0.6327,
,,,,space,,0,258,258,181,1,E, , , , ,space,1500,1.5,cesandling1503,001,2021-08-19_15h31.24.105,natb3,2021.2.3,Win32,60.07449237,611cbe6a47e57e7cfeef4436,611e07ecdcc96256ae8d5b80,611e6b2830a8e7ffd2861c07,0.5659,
,,,,space,,0,259,259,274,1,F, , , , ,space,2000,2,cesandling1503,001,2021-08-19_15h31.24.105,natb3,2021.2.3,Win32,60.07449237,611cbe6a47e57e7cfeef4436,611e07ecdcc96256ae8d5b80,611e6b2830a8e7ffd2861c07,0.6673,
,,,,space,,0,260,260,135,1,K, , , , ,space,1500,1.5,cesandling1503,001,2021-08-19_15h31.24.105,natb3,2021.2.3,Win32,60.07449237,611cbe6a47e57e7cfeef4436,611e07ecdcc96256ae8d5b80,611e6b2830a8e7ffd2861c07,0.5989,
,,,,space,,0,261,261,47,1,P, , , , ,space,2000,2,cesandling1503,001,2021-08-19_15h31.24.105,natb3,2021.2.3,Win32,60.07449237,611cbe6a47e57e7cfeef4436,611e07ecdcc96256ae8d5b80,611e6b2830a8e7ffd2861c07,0.3843,
,,,,,,0,262,262,271,1,X, , , , ,,2500,2.5,cesandling1503,001,2021-08-19_15h31.24.105,natb3,2021.2.3,Win32,60.07449237,611cbe6a47e57e7cfeef4436,611e07ecdcc96256ae8d5b80,611e6b2830a8e7ffd2861c07,,
,,,,space,,0,263,263,223,1,Q, , , , ,space,2000,2,cesandling1503,001,2021-08-19_15h31.24.105,natb3,2021.2.3,Win32,60.07449237,611cbe6a47e57e7cfeef4436,611e07ecdcc96256ae8d5b80,611e6b2830a8e7ffd2861c07,0.4848,
,,,,space,,0,264,264,25,1,Z, , , , ,space,2500,2.5,cesandling1503,001,2021-08-19_15h31.24.105,natb3,2021.2.3,Win32,60.07449237,611cbe6a47e57e7cfeef4436,611e07ecdcc96256ae8d5b80,611e6b2830a8e7ffd2861c07,0.7199,
,,,,space,,0,265,265,160,1,D, , , , ,space,1500,1.5,cesandling1503,001,2021-08-19_15h31.24.105,natb3,2021.2.3,Win32,60.07449237,611cbe6a47e57e7cfeef4436,611e07ecdcc96256ae8d5b80,611e6b2830a8e7ffd2861c07,0.4679,
,,,,space,,0,266,266,204,1,Z, , , , ,space,2000,2,cesandling1503,001,2021-08-19_15h31.24.105,natb3,2021.2.3,Win32,60.07449237,611cbe6a47e57e7cfeef4436,611e07ecdcc96256ae8d5b80,611e6b2830a8e7ffd2861c07,0.3993,
,,,,,,0,267,267,248,1,X, ,1,5, ,,1500,1.5,cesandling1503,001,2021-08-19_15h31.24.105,natb3,2021.2.3,Win32,60.07449237,611cbe6a47e57e7cfeef4436,611e07ecdcc96256ae8d5b80,611e6b2830a8e7ffd2861c07,,
,,,,space,,0,268,268,244,1,J, , , , ,space,1500,1.5,cesandling1503,001,2021-08-19_15h31.24.105,natb3,2021.2.3,Win32,60.07449237,611cbe6a47e57e7cfeef4436,611e07ecdcc96256ae8d5b80,611e6b2830a8e7ffd2861c07,0.4345,
,,,,,,0,269,269,211,1,X, , , , ,,2500,2.5,cesandling1503,001,2021-08-19_15h31.24.105,natb3,2021.2.3,Win32,60.07449237,611cbe6a47e57e7cfeef4436,611e07ecdcc96256ae8d5b80,611e6b2830a8e7ffd2861c07,,
,,,,space,,0,270,270,237,1,S, , , , ,space,1500,1.5,cesandling1503,001,2021-08-19_15h31.24.105,natb3,2021.2.3,Win32,60.07449237,611cbe6a47e57e7cfeef4436,611e07ecdcc96256ae8d5b80,611e6b2830a8e7ffd2861c07,0.4308,
,,,,,,0,271,271,15,1,X, , , , ,,1500,1.5,cesandling1503,001,2021-08-19_15h31.24.105,natb3,2021.2.3,Win32,60.07449237,611cbe6a47e57e7cfeef4436,611e07ecdcc96256ae8d5b80,611e6b2830a8e7ffd2861c07,,
,,,,space,,0,272,272,327,1,E, , , , ,space,1500,1.5,cesandling1503,001,2021-08-19_15h31.24.105,natb3,2021.2.3,Win32,60.07449237,611cbe6a47e57e7cfeef4436,611e07ecdcc96256ae8d5b80,611e6b2830a8e7ffd2861c07,0.652,
,,,,space,,0,273,273,142,1,N, , , , ,space,2500,2.5,cesandling1503,001,2021-08-19_15h31.24.105,natb3,2021.2.3,Win32,60.07449237,611cbe6a47e57e7cfeef4436,611e07ecdcc96256ae8d5b80,611e6b2830a8e7ffd2861c07,0.7858,
,,,,space,,0,274,274,157,1,A, , , , ,space,2500,2.5,cesandling1503,001,2021-08-19_15h31.24.105,natb3,2021.2.3,Win32,60.07449237,611cbe6a47e57e7cfeef4436,611e07ecdcc96256ae8d5b80,611e6b2830a8e7ffd2861c07,0.577,
,,,,,,0,275,275,51,1,X,7,5,8, ,,1500,1.5,cesandling1503,001,2021-08-19_15h31.24.105,natb3,2021.2.3,Win32,60.07449237,611cbe6a47e57e7cfeef4436,611e07ecdcc96256ae8d5b80,611e6b2830a8e7ffd2861c07,,
,,,,,,0,276,276,329,1,X,3,4, ,2,,2500,2.5,cesandling1503,001,2021-08-19_15h31.24.105,natb3,2021.2.3,Win32,60.07449237,611cbe6a47e57e7cfeef4436,611e07ecdcc96256ae8d5b80,611e6b2830a8e7ffd2861c07,,
,,,,space,,0,277,277,173,1,V, , , , ,space,1500,1.5,cesandling1503,001,2021-08-19_15h31.24.105,natb3,2021.2.3,Win32,60.07449237,611cbe6a47e57e7cfeef4436,611e07ecdcc96256ae8d5b80,611e6b2830a8e7ffd2861c07,0.4955,
,,,,space,,0,278,278,128,1,D, , , , ,space,2500,2.5,cesandling1503,001,2021-08-19_15h31.24.105,natb3,2021.2.3,Win32,60.07449237,611cbe6a47e57e7cfeef4436,611e07ecdcc96256ae8d5b80,611e6b2830a8e7ffd2861c07,0.4626,
,,,,space,,0,279,279,28,1,V, , , , ,space,1500,1.5,cesandling1503,001,2021-08-19_15h31.24.105,natb3,2021.2.3,Win32,60.07449237,611cbe6a47e57e7cfeef4436,611e07ecdcc96256ae8d5b80,611e6b2830a8e7ffd2861c07,0.693,
,,,,space,,0,280,280,38,1,R, , , , ,space,2500,2.5,cesandling1503,001,2021-08-19_15h31.24.105,natb3,2021.2.3,Win32,60.07449237,611cbe6a47e57e7cfeef4436,611e07ecdcc96256ae8d5b80,611e6b2830a8e7ffd2861c07,0.5157,
,,,,space,,0,281,281,147,1,E, , , , ,space,2000,2,cesandling1503,001,2021-08-19_15h31.24.105,natb3,2021.2.3,Win32,60.07449237,611cbe6a47e57e7cfeef4436,611e07ecdcc96256ae8d5b80,611e6b2830a8e7ffd2861c07,0.6014,
,,,,space,,0,282,282,163,1,G, , , , ,space,2500,2.5,cesandling1503,001,2021-08-19_15h31.24.105,natb3,2021.2.3,Win32,60.07449237,611cbe6a47e57e7cfeef4436,611e07ecdcc96256ae8d5b80,611e6b2830a8e7ffd2861c07,0.8096,
,,,,,,0,283,283,133,1,X, ,4, ,6,,2500,2.5,cesandling1503,001,2021-08-19_15h31.24.105,natb3,2021.2.3,Win32,60.07449237,611cbe6a47e57e7cfeef4436,611e07ecdcc96256ae8d5b80,611e6b2830a8e7ffd2861c07,,
,,,,space,,0,284,284,90,1,K, , , , ,space,2000,2,cesandling1503,001,2021-08-19_15h31.24.105,natb3,2021.2.3,Win32,60.07449237,611cbe6a47e57e7cfeef4436,611e07ecdcc96256ae8d5b80,611e6b2830a8e7ffd2861c07,0.7938,
,,,,space,,0,285,285,283,1,C, , , , ,space,1500,1.5,cesandling1503,001,2021-08-19_15h31.24.105,natb3,2021.2.3,Win32,60.07449237,611cbe6a47e57e7cfeef4436,611e07ecdcc96256ae8d5b80,611e6b2830a8e7ffd2861c07,0.5988,
,,,,space,,0,286,286,330,1,T, , , , ,space,2500,2.5,cesandling1503,001,2021-08-19_15h31.24.105,natb3,2021.2.3,Win32,60.07449237,611cbe6a47e57e7cfeef4436,611e07ecdcc96256ae8d5b80,611e6b2830a8e7ffd2861c07,0.4319,
,,,,space,,0,287,287,91,1,L, , , , ,space,2000,2,cesandling1503,001,2021-08-19_15h31.24.105,natb3,2021.2.3,Win32,60.07449237,611cbe6a47e57e7cfeef4436,611e07ecdcc96256ae8d5b80,611e6b2830a8e7ffd2861c07,0.6541,
,,,,space,,0,288,288,56,1,J, , , , ,space,1500,1.5,cesandling1503,001,2021-08-19_15h31.24.105,natb3,2021.2.3,Win32,60.07449237,611cbe6a47e57e7cfeef4436,611e07ecdcc96256ae8d5b80,611e6b2830a8e7ffd2861c07,0.4018,
,,,,space,,0,289,289,149,1,R, , , , ,space,2000,2,cesandling1503,001,2021-08-19_15h31.24.105,natb3,2021.2.3,Win32,60.07449237,611cbe6a47e57e7cfeef4436,611e07ecdcc96256ae8d5b80,611e6b2830a8e7ffd2861c07,0.7155,
,,,,space,,0,290,290,158,1,X, , , , ,,1500,1.5,cesandling1503,001,2021-08-19_15h31.24.105,natb3,2021.2.3,Win32,60.07449237,611cbe6a47e57e7cfeef4436,611e07ecdcc96256ae8d5b80,611e6b2830a8e7ffd2861c07,0.4037,
,,,,space,,0,291,291,77,1,O, , , , ,space,2000,2,cesandling1503,001,2021-08-19_15h31.24.105,natb3,2021.2.3,Win32,60.07449237,611cbe6a47e57e7cfeef4436,611e07ecdcc96256ae8d5b80,611e6b2830a8e7ffd2861c07,0.6433,
,,,,space,,0,292,292,316,1,Z, , , , ,space,1500,1.5,cesandling1503,001,2021-08-19_15h31.24.105,natb3,2021.2.3,Win32,60.07449237,611cbe6a47e57e7cfeef4436,611e07ecdcc96256ae8d5b80,611e6b2830a8e7ffd2861c07,0.4167,
,,,,space,,0,293,293,290,1,W, , , , ,space,1500,1.5,cesandling1503,001,2021-08-19_15h31.24.105,natb3,2021.2.3,Win32,60.07449237,611cbe6a47e57e7cfeef4436,611e07ecdcc96256ae8d5b80,611e6b2830a8e7ffd2861c07,0.6821,
,,,,space,,0,294,294,332,1,U, , , , ,space,2000,2,cesandling1503,001,2021-08-19_15h31.24.105,natb3,2021.2.3,Win32,60.07449237,611cbe6a47e57e7cfeef4436,611e07ecdcc96256ae8d5b80,611e6b2830a8e7ffd2861c07,0.4331,
,,,,space,,0,295,295,44,1,I, , , , ,space,2500,2.5,cesandling1503,001,2021-08-19_15h31.24.105,natb3,2021.2.3,Win32,60.07449237,611cbe6a47e57e7cfeef4436,611e07ecdcc96256ae8d5b80,611e6b2830a8e7ffd2861c07,0.4077,
,,,,space,,0,296,296,159,1,S, , , , ,space,2500,2.5,cesandling1503,001,2021-08-19_15h31.24.105,natb3,2021.2.3,Win32,60.07449237,611cbe6a47e57e7cfeef4436,611e07ecdcc96256ae8d5b80,611e6b2830a8e7ffd2861c07,0.6155,
,,,,space,,0,297,297,126,1,A, , , , ,space,2500,2.5,cesandling1503,001,2021-08-19_15h31.24.105,natb3,2021.2.3,Win32,60.07449237,611cbe6a47e57e7cfeef4436,611e07ecdcc96256ae8d5b80,611e6b2830a8e7ffd2861c07,0.5152,
,,,,space,,0,298,298,250,1,V, , , , ,space,2000,2,cesandling1503,001,2021-08-19_15h31.24.105,natb3,2021.2.3,Win32,60.07449237,611cbe6a47e57e7cfeef4436,611e07ecdcc96256ae8d5b80,611e6b2830a8e7ffd2861c07,0.6888,
,,,,space,,0,299,299,130,1,F, , , , ,space,2000,2,cesandling1503,001,2021-08-19_15h31.24.105,natb3,2021.2.3,Win32,60.07449237,611cbe6a47e57e7cfeef4436,611e07ecdcc96256ae8d5b80,611e6b2830a8e7ffd2861c07,0.4073,
,,,,space,,0,300,300,100,1,M, , , , ,space,2000,2,cesandling1503,001,2021-08-19_15h31.24.105,natb3,2021.2.3,Win32,60.07449237,611cbe6a47e57e7cfeef4436,611e07ecdcc96256ae8d5b80,611e6b2830a8e7ffd2861c07,0.3723,
,,,,space,,0,301,301,333,1,I, , , , ,space,1500,1.5,cesandling1503,001,2021-08-19_15h31.24.105,natb3,2021.2.3,Win32,60.07449237,611cbe6a47e57e7cfeef4436,611e07ecdcc96256ae8d5b80,611e6b2830a8e7ffd2861c07,0.4158,
,,,,,,0,302,302,74,1,X, ,4,3,2,,1500,1.5,cesandling1503,001,2021-08-19_15h31.24.105,natb3,2021.2.3,Win32,60.07449237,611cbe6a47e57e7cfeef4436,611e07ecdcc96256ae8d5b80,611e6b2830a8e7ffd2861c07,,
,,,,space,,0,303,303,300,1,O, , , , ,space,2500,2.5,cesandling1503,001,2021-08-19_15h31.24.105,natb3,2021.2.3,Win32,60.07449237,611cbe6a47e57e7cfeef4436,611e07ecdcc96256ae8d5b80,611e6b2830a8e7ffd2861c07,0.4691,
,,,,space,,0,304,304,328,1,R, , , , ,space,1500,1.5,cesandling1503,001,2021-08-19_15h31.24.105,natb3,2021.2.3,Win32,60.07449237,611cbe6a47e57e7cfeef4436,611e07ecdcc96256ae8d5b80,611e6b2830a8e7ffd2861c07,0.6824,
,,,,space,,0,305,305,276,1,H, , , , ,space,2000,2,cesandling1503,001,2021-08-19_15h31.24.105,natb3,2021.2.3,Win32,60.07449237,611cbe6a47e57e7cfeef4436,611e07ecdcc96256ae8d5b80,611e6b2830a8e7ffd2861c07,0.4574,
,,,,space,,0,306,306,192,1,A, , , , ,space,2000,2,cesandling1503,001,2021-08-19_15h31.24.105,natb3,2021.2.3,Win32,60.07449237,611cbe6a47e57e7cfeef4436,611e07ecdcc96256ae8d5b80,611e6b2830a8e7ffd2861c07,0.388,
,,,,space,,0,307,307,79,1,P, , , , ,space,2000,2,cesandling1503,001,2021-08-19_15h31.24.105,natb3,2021.2.3,Win32,60.07449237,611cbe6a47e57e7cfeef4436,611e07ecdcc96256ae8d5b80,611e6b2830a8e7ffd2861c07,0.4162,
,,,,space,,0,308,308,146,1,W, , , , ,space,1500,1.5,cesandling1503,001,2021-08-19_15h31.24.105,natb3,2021.2.3,Win32,60.07449237,611cbe6a47e57e7cfeef4436,611e07ecdcc96256ae8d5b80,611e6b2830a8e7ffd2861c07,0.4329,
,,,,space,,0,309,309,285,1,B, , , , ,space,1500,1.5,cesandling1503,001,2021-08-19_15h31.24.105,natb3,2021.2.3,Win32,60.07449237,611cbe6a47e57e7cfeef4436,611e07ecdcc96256ae8d5b80,611e6b2830a8e7ffd2861c07,0.5036,
,,,,,,0,310,310,18,1,X, ,2,5,8,,2500,2.5,cesandling1503,001,2021-08-19_15h31.24.105,natb3,2021.2.3,Win32,60.07449237,611cbe6a47e57e7cfeef4436,611e07ecdcc96256ae8d5b80,611e6b2830a8e7ffd2861c07,,
,,,,,,0,311,311,104,1,E, , , , ,space,2000,2,cesandling1503,001,2021-08-19_15h31.24.105,natb3,2021.2.3,Win32,60.07449237,611cbe6a47e57e7cfeef4436,611e07ecdcc96256ae8d5b80,611e6b2830a8e7ffd2861c07,,
,,,,space,,0,312,312,201,1,K, , , , ,space,1500,1.5,cesandling1503,001,2021-08-19_15h31.24.105,natb3,2021.2.3,Win32,60.07449237,611cbe6a47e57e7cfeef4436,611e07ecdcc96256ae8d5b80,611e6b2830a8e7ffd2861c07,0.7401,
,,,,space,,0,313,313,75,1,U, , , , ,space,1500,1.5,cesandling1503,001,2021-08-19_15h31.24.105,natb3,2021.2.3,Win32,60.07449237,611cbe6a47e57e7cfeef4436,611e07ecdcc96256ae8d5b80,611e6b2830a8e7ffd2861c07,0.5873,
,,,,,,0,314,314,69,1,X, , , , ,,1500,1.5,cesandling1503,001,2021-08-19_15h31.24.105,natb3,2021.2.3,Win32,60.07449237,611cbe6a47e57e7cfeef4436,611e07ecdcc96256ae8d5b80,611e6b2830a8e7ffd2861c07,,
,,,,,,0,315,315,168,1,X, , , , ,,2500,2.5,cesandling1503,001,2021-08-19_15h31.24.105,natb3,2021.2.3,Win32,60.07449237,611cbe6a47e57e7cfeef4436,611e07ecdcc96256ae8d5b80,611e6b2830a8e7ffd2861c07,,
,,,,,,0,316,316,55,1,H, , , , ,space,2500,2.5,cesandling1503,001,2021-08-19_15h31.24.105,natb3,2021.2.3,Win32,60.07449237,611cbe6a47e57e7cfeef4436,611e07ecdcc96256ae8d5b80,611e6b2830a8e7ffd2861c07,,
,,,,space,,0,317,317,258,1,E, , , , ,space,1500,1.5,cesandling1503,001,2021-08-19_15h31.24.105,natb3,2021.2.3,Win32,60.07449237,611cbe6a47e57e7cfeef4436,611e07ecdcc96256ae8d5b80,611e6b2830a8e7ffd2861c07,0.5497,
,,,,,,0,318,318,228,1,Y, , , , ,space,2000,2,cesandling1503,001,2021-08-19_15h31.24.105,natb3,2021.2.3,Win32,60.07449237,611cbe6a47e57e7cfeef4436,611e07ecdcc96256ae8d5b80,611e6b2830a8e7ffd2861c07,,
,,,,space,,0,319,319,303,1,A, , , , ,space,2000,2,cesandling1503,001,2021-08-19_15h31.24.105,natb3,2021.2.3,Win32,60.07449237,611cbe6a47e57e7cfeef4436,611e07ecdcc96256ae8d5b80,611e6b2830a8e7ffd2861c07,0.6234,
,,,,space,,0,320,320,178,1,Q, , , , ,space,1500,1.5,cesandling1503,001,2021-08-19_15h31.24.105,natb3,2021.2.3,Win32,60.07449237,611cbe6a47e57e7cfeef4436,611e07ecdcc96256ae8d5b80,611e6b2830a8e7ffd2861c07,0.6548,
,,,,space,,0,321,321,243,1,X, , , , ,,2500,2.5,cesandling1503,001,2021-08-19_15h31.24.105,natb3,2021.2.3,Win32,60.07449237,611cbe6a47e57e7cfeef4436,611e07ecdcc96256ae8d5b80,611e6b2830a8e7ffd2861c07,0.5993,
,,,,space,,0,322,322,24,1,L, , , , ,space,2500,2.5,cesandling1503,001,2021-08-19_15h31.24.105,natb3,2021.2.3,Win32,60.07449237,611cbe6a47e57e7cfeef4436,611e07ecdcc96256ae8d5b80,611e6b2830a8e7ffd2861c07,0.649,
,,,,,,0,323,323,145,1,X, , , , ,,2000,2,cesandling1503,001,2021-08-19_15h31.24.105,natb3,2021.2.3,Win32,60.07449237,611cbe6a47e57e7cfeef4436,611e07ecdcc96256ae8d5b80,611e6b2830a8e7ffd2861c07,,
,,,,,,0,324,324,89,1,X,3, , , ,,2000,2,cesandling1503,001,2021-08-19_15h31.24.105,natb3,2021.2.3,Win32,60.07449237,611cbe6a47e57e7cfeef4436,611e07ecdcc96256ae8d5b80,611e6b2830a8e7ffd2861c07,,
,,,,,,0,325,325,166,1,X, , , , ,,2000,2,cesandling1503,001,2021-08-19_15h31.24.105,natb3,2021.2.3,Win32,60.07449237,611cbe6a47e57e7cfeef4436,611e07ecdcc96256ae8d5b80,611e6b2830a8e7ffd2861c07,,
,,,,,,0,326,326,278,1,J, , , , ,space,2000,2,cesandling1503,001,2021-08-19_15h31.24.105,natb3,2021.2.3,Win32,60.07449237,611cbe6a47e57e7cfeef4436,611e07ecdcc96256ae8d5b80,611e6b2830a8e7ffd2861c07,,
,,,,,,0,327,327,96,1,X, , , , ,,1500,1.5,cesandling1503,001,2021-08-19_15h31.24.105,natb3,2021.2.3,Win32,60.07449237,611cbe6a47e57e7cfeef4436,611e07ecdcc96256ae8d5b80,611e6b2830a8e7ffd2861c07,,
,,,,,,0,328,328,65,1,M, , , , ,space,1500,1.5,cesandling1503,001,2021-08-19_15h31.24.105,natb3,2021.2.3,Win32,60.07449237,611cbe6a47e57e7cfeef4436,611e07ecdcc96256ae8d5b80,611e6b2830a8e7ffd2861c07,,
,,,,,,0,329,329,12,1,X, , , , ,,1500,1.5,cesandling1503,001,2021-08-19_15h31.24.105,natb3,2021.2.3,Win32,60.07449237,611cbe6a47e57e7cfeef4436,611e07ecdcc96256ae8d5b80,611e6b2830a8e7ffd2861c07,,
,,,,,,0,330,330,127,1,S, , , , ,space,2500,2.5,cesandling1503,001,2021-08-19_15h31.24.105,natb3,2021.2.3,Win32,60.07449237,611cbe6a47e57e7cfeef4436,611e07ecdcc96256ae8d5b80,611e6b2830a8e7ffd2861c07,,
,,,,space,,0,331,331,189,1,O, , , , ,space,1500,1.5,cesandling1503,001,2021-08-19_15h31.24.105,natb3,2021.2.3,Win32,60.07449237,611cbe6a47e57e7cfeef4436,611e07ecdcc96256ae8d5b80,611e6b2830a8e7ffd2861c07,0.6042,
,,,,space,,0,332,332,220,1,U, , , , ,space,2500,2.5,cesandling1503,001,2021-08-19_15h31.24.105,natb3,2021.2.3,Win32,60.07449237,611cbe6a47e57e7cfeef4436,611e07ecdcc96256ae8d5b80,611e6b2830a8e7ffd2861c07,0.4937,
,,,,,,0,333,333,295,1,X,8,7,5, ,,2500,2.5,cesandling1503,001,2021-08-19_15h31.24.105,natb3,2021.2.3,Win32,60.07449237,611cbe6a47e57e7cfeef4436,611e07ecdcc96256ae8d5b80,611e6b2830a8e7ffd2861c07,,
,,,,,,0,334,334,98,1,X, , , , ,,2500,2.5,cesandling1503,001,2021-08-19_15h31.24.105,natb3,2021.2.3,Win32,60.07449237,611cbe6a47e57e7cfeef4436,611e07ecdcc96256ae8d5b80,611e6b2830a8e7ffd2861c07,,
,,,,space,,0,335,335,251,1,B, , , , ,space,1500,1.5,cesandling1503,001,2021-08-19_15h31.24.105,natb3,2021.2.3,Win32,60.07449237,611cbe6a47e57e7cfeef4436,611e07ecdcc96256ae8d5b80,611e6b2830a8e7ffd2861c07,0.5084,
