key_resp_2.keys,key_resp_2.rt,key_resp_3.keys,key_resp_3.rt,key_resp.keys,key_resp.rt,key_resp_4.keys,trials.thisRepN,trials.thisTrialN,trials.thisN,trials.thisIndex,trials.ran,stimulus,distractor1,distractor2,distractor3,distractor4,CorrAns,isi_duration,isi_dur_in_seconds,participant,session,date,expName,psychopyVersion,OS,frameRate,PROLIFIC_PID,STUDY_ID,SESSION_ID,key_resp_4.rt
return,15.189,space,10.001,space,0.609,,0,0,0,65,1,M, , , , ,space,1500,1.5,E,001,2021-08-17_17h19.27.206,natb3,2021.2.3,Win32,59.95203837,574c43d35e5491000f3c630f,6107d0959f7c4c3641818b95,611be1566dcf2514999d4d50,
,,,,space,0.312,,0,1,1,147,1,E, , , , ,space,2000,2,E,001,2021-08-17_17h19.27.206,natb3,2021.2.3,Win32,59.95203837,574c43d35e5491000f3c630f,6107d0959f7c4c3641818b95,611be1566dcf2514999d4d50,
,,,,space,0.275,,0,2,2,72,1,T, , , , ,space,1500,1.5,E,001,2021-08-17_17h19.27.206,natb3,2021.2.3,Win32,59.95203837,574c43d35e5491000f3c630f,6107d0959f7c4c3641818b95,611be1566dcf2514999d4d50,
,,,,space,0.302,,0,3,3,25,1,Z, , , , ,space,2500,2.5,E,001,2021-08-17_17h19.27.206,natb3,2021.2.3,Win32,59.95203837,574c43d35e5491000f3c630f,6107d0959f7c4c3641818b95,611be1566dcf2514999d4d50,
,,,,space,0.317,,0,4,4,91,1,L, , , , ,space,2000,2,E,001,2021-08-17_17h19.27.206,natb3,2021.2.3,Win32,59.95203837,574c43d35e5491000f3c630f,6107d0959f7c4c3641818b95,611be1566dcf2514999d4d50,
,,,,space,0.855,,0,5,5,167,1,K, , , , ,space,1500,1.5,E,001,2021-08-17_17h19.27.206,natb3,2021.2.3,Win32,59.95203837,574c43d35e5491000f3c630f,6107d0959f7c4c3641818b95,611be1566dcf2514999d4d50,
,,,,space,0.389,,0,6,6,272,1,D, , , , ,space,2000,2,E,001,2021-08-17_17h19.27.206,natb3,2021.2.3,Win32,59.95203837,574c43d35e5491000f3c630f,6107d0959f7c4c3641818b95,611be1566dcf2514999d4d50,
,,,,space,0.352,,0,7,7,300,1,O, , , , ,space,2500,2.5,E,001,2021-08-17_17h19.27.206,natb3,2021.2.3,Win32,59.95203837,574c43d35e5491000f3c630f,6107d0959f7c4c3641818b95,611be1566dcf2514999d4d50,
,,,,space,0.265,,0,8,8,331,1,Y, , , , ,space,2500,2.5,E,001,2021-08-17_17h19.27.206,natb3,2021.2.3,Win32,59.95203837,574c43d35e5491000f3c630f,6107d0959f7c4c3641818b95,611be1566dcf2514999d4d50,
,,,,space,0.349,,0,9,9,328,1,R, , , , ,space,1500,1.5,E,001,2021-08-17_17h19.27.206,natb3,2021.2.3,Win32,59.95203837,574c43d35e5491000f3c630f,6107d0959f7c4c3641818b95,611be1566dcf2514999d4d50,
,,,,,,,0,10,10,322,1,X, , ,1,6,,2000,2,E,001,2021-08-17_17h19.27.206,natb3,2021.2.3,Win32,59.95203837,574c43d35e5491000f3c630f,6107d0959f7c4c3641818b95,611be1566dcf2514999d4d50,
,,,,,,,0,11,11,107,1,X,9,3, ,2,,2000,2,E,001,2021-08-17_17h19.27.206,natb3,2021.2.3,Win32,59.95203837,574c43d35e5491000f3c630f,6107d0959f7c4c3641818b95,611be1566dcf2514999d4d50,
,,,,space,0.432,,0,12,12,227,1,T, , , , ,space,1500,1.5,E,001,2021-08-17_17h19.27.206,natb3,2021.2.3,Win32,59.95203837,574c43d35e5491000f3c630f,6107d0959f7c4c3641818b95,611be1566dcf2514999d4d50,
,,,,space,0.383,,0,13,13,149,1,R, , , , ,space,2000,2,E,001,2021-08-17_17h19.27.206,natb3,2021.2.3,Win32,59.95203837,574c43d35e5491000f3c630f,6107d0959f7c4c3641818b95,611be1566dcf2514999d4d50,
,,,,space,0.388,,0,14,14,108,1,Y, , , , ,space,2500,2.5,E,001,2021-08-17_17h19.27.206,natb3,2021.2.3,Win32,59.95203837,574c43d35e5491000f3c630f,6107d0959f7c4c3641818b95,611be1566dcf2514999d4d50,
,,,,space,0.636,,0,15,15,165,1,J, , , , ,space,2500,2.5,E,001,2021-08-17_17h19.27.206,natb3,2021.2.3,Win32,59.95203837,574c43d35e5491000f3c630f,6107d0959f7c4c3641818b95,611be1566dcf2514999d4d50,
,,,,space,0.368,,0,16,16,189,1,O, , , , ,space,1500,1.5,E,001,2021-08-17_17h19.27.206,natb3,2021.2.3,Win32,59.95203837,574c43d35e5491000f3c630f,6107d0959f7c4c3641818b95,611be1566dcf2514999d4d50,
,,,,space,0.751,,0,17,17,257,1,W, , , , ,space,2000,2,E,001,2021-08-17_17h19.27.206,natb3,2021.2.3,Win32,59.95203837,574c43d35e5491000f3c630f,6107d0959f7c4c3641818b95,611be1566dcf2514999d4d50,
,,,,space,0.604,,0,18,18,199,1,J, , , , ,space,2500,2.5,E,001,2021-08-17_17h19.27.206,natb3,2021.2.3,Win32,59.95203837,574c43d35e5491000f3c630f,6107d0959f7c4c3641818b95,611be1566dcf2514999d4d50,
,,,,space,0.443,,0,19,19,309,1,H, , , , ,space,2500,2.5,E,001,2021-08-17_17h19.27.206,natb3,2021.2.3,Win32,59.95203837,574c43d35e5491000f3c630f,6107d0959f7c4c3641818b95,611be1566dcf2514999d4d50,
,,,,,,,0,20,20,207,1,X,9, ,2, ,,2500,2.5,E,001,2021-08-17_17h19.27.206,natb3,2021.2.3,Win32,59.95203837,574c43d35e5491000f3c630f,6107d0959f7c4c3641818b95,611be1566dcf2514999d4d50,
,,,,space,0.337,,0,21,21,294,1,T, , , , ,space,2000,2,E,001,2021-08-17_17h19.27.206,natb3,2021.2.3,Win32,59.95203837,574c43d35e5491000f3c630f,6107d0959f7c4c3641818b95,611be1566dcf2514999d4d50,
,,,,space,0.402,,0,22,22,92,1,Z, , , , ,space,1500,1.5,E,001,2021-08-17_17h19.27.206,natb3,2021.2.3,Win32,59.95203837,574c43d35e5491000f3c630f,6107d0959f7c4c3641818b95,611be1566dcf2514999d4d50,
,,,,space,0.386,,0,23,23,106,1,T, , , , ,space,1500,1.5,E,001,2021-08-17_17h19.27.206,natb3,2021.2.3,Win32,59.95203837,574c43d35e5491000f3c630f,6107d0959f7c4c3641818b95,611be1566dcf2514999d4d50,
,,,,,,,0,24,24,69,1,X, , , , ,,1500,1.5,E,001,2021-08-17_17h19.27.206,natb3,2021.2.3,Win32,59.95203837,574c43d35e5491000f3c630f,6107d0959f7c4c3641818b95,611be1566dcf2514999d4d50,
,,,,,,,0,25,25,329,1,X,3,4, ,2,,2500,2.5,E,001,2021-08-17_17h19.27.206,natb3,2021.2.3,Win32,59.95203837,574c43d35e5491000f3c630f,6107d0959f7c4c3641818b95,611be1566dcf2514999d4d50,
,,,,space,0.38,,0,26,26,258,1,E, , , , ,space,1500,1.5,E,001,2021-08-17_17h19.27.206,natb3,2021.2.3,Win32,59.95203837,574c43d35e5491000f3c630f,6107d0959f7c4c3641818b95,611be1566dcf2514999d4d50,
,,,,space,0.405,,0,27,27,181,1,E, , , , ,space,1500,1.5,E,001,2021-08-17_17h19.27.206,natb3,2021.2.3,Win32,59.95203837,574c43d35e5491000f3c630f,6107d0959f7c4c3641818b95,611be1566dcf2514999d4d50,
,,,,,,,0,28,28,268,1,X,6, ,3, ,,2500,2.5,E,001,2021-08-17_17h19.27.206,natb3,2021.2.3,Win32,59.95203837,574c43d35e5491000f3c630f,6107d0959f7c4c3641818b95,611be1566dcf2514999d4d50,
,,,,space,0.519,,0,29,29,301,1,P, , , , ,space,1500,1.5,E,001,2021-08-17_17h19.27.206,natb3,2021.2.3,Win32,59.95203837,574c43d35e5491000f3c630f,6107d0959f7c4c3641818b95,611be1566dcf2514999d4d50,
,,,,space,0.402,,0,30,30,70,1,E, , , , ,space,2500,2.5,E,001,2021-08-17_17h19.27.206,natb3,2021.2.3,Win32,59.95203837,574c43d35e5491000f3c630f,6107d0959f7c4c3641818b95,611be1566dcf2514999d4d50,
,,,,space,0.401,,0,31,31,85,1,F, , , , ,space,2500,2.5,E,001,2021-08-17_17h19.27.206,natb3,2021.2.3,Win32,59.95203837,574c43d35e5491000f3c630f,6107d0959f7c4c3641818b95,611be1566dcf2514999d4d50,
,,,,space,0.451,,0,32,32,244,1,J, , , , ,space,1500,1.5,E,001,2021-08-17_17h19.27.206,natb3,2021.2.3,Win32,59.95203837,574c43d35e5491000f3c630f,6107d0959f7c4c3641818b95,611be1566dcf2514999d4d50,
,,,,space,0.534,,0,33,33,201,1,K, , , , ,space,1500,1.5,E,001,2021-08-17_17h19.27.206,natb3,2021.2.3,Win32,59.95203837,574c43d35e5491000f3c630f,6107d0959f7c4c3641818b95,611be1566dcf2514999d4d50,
,,,,space,0.534,,0,34,34,164,1,H, , , , ,space,2500,2.5,E,001,2021-08-17_17h19.27.206,natb3,2021.2.3,Win32,59.95203837,574c43d35e5491000f3c630f,6107d0959f7c4c3641818b95,611be1566dcf2514999d4d50,
,,,,space,0.371,,0,35,35,52,1,F, , , , ,space,1500,1.5,E,001,2021-08-17_17h19.27.206,natb3,2021.2.3,Win32,59.95203837,574c43d35e5491000f3c630f,6107d0959f7c4c3641818b95,611be1566dcf2514999d4d50,
,,,,space,0.417,,0,36,36,290,1,W, , , , ,space,1500,1.5,E,001,2021-08-17_17h19.27.206,natb3,2021.2.3,Win32,59.95203837,574c43d35e5491000f3c630f,6107d0959f7c4c3641818b95,611be1566dcf2514999d4d50,
,,,,space,0.5,,0,37,37,260,1,R, , , , ,space,2000,2,E,001,2021-08-17_17h19.27.206,natb3,2021.2.3,Win32,59.95203837,574c43d35e5491000f3c630f,6107d0959f7c4c3641818b95,611be1566dcf2514999d4d50,
,,,,,,,0,38,38,229,1,X,8, ,2,6,,2500,2.5,E,001,2021-08-17_17h19.27.206,natb3,2021.2.3,Win32,59.95203837,574c43d35e5491000f3c630f,6107d0959f7c4c3641818b95,611be1566dcf2514999d4d50,
,,,,space,0.416,,0,39,39,286,1,N, , , , ,space,1500,1.5,E,001,2021-08-17_17h19.27.206,natb3,2021.2.3,Win32,59.95203837,574c43d35e5491000f3c630f,6107d0959f7c4c3641818b95,611be1566dcf2514999d4d50,
,,,,space,0.455,,0,40,40,330,1,T, , , , ,space,2500,2.5,E,001,2021-08-17_17h19.27.206,natb3,2021.2.3,Win32,59.95203837,574c43d35e5491000f3c630f,6107d0959f7c4c3641818b95,611be1566dcf2514999d4d50,
,,,,space,0.482,,0,41,41,241,1,G, , , , ,space,2500,2.5,E,001,2021-08-17_17h19.27.206,natb3,2021.2.3,Win32,59.95203837,574c43d35e5491000f3c630f,6107d0959f7c4c3641818b95,611be1566dcf2514999d4d50,
,,,,space,0.911,,0,42,42,251,1,B, , , , ,space,1500,1.5,E,001,2021-08-17_17h19.27.206,natb3,2021.2.3,Win32,59.95203837,574c43d35e5491000f3c630f,6107d0959f7c4c3641818b95,611be1566dcf2514999d4d50,
,,,,space,0.332,,0,43,43,198,1,H, , , , ,space,2500,2.5,E,001,2021-08-17_17h19.27.206,natb3,2021.2.3,Win32,59.95203837,574c43d35e5491000f3c630f,6107d0959f7c4c3641818b95,611be1566dcf2514999d4d50,
,,,,space,0.452,,0,44,44,308,1,G, , , , ,space,1500,1.5,E,001,2021-08-17_17h19.27.206,natb3,2021.2.3,Win32,59.95203837,574c43d35e5491000f3c630f,6107d0959f7c4c3641818b95,611be1566dcf2514999d4d50,
,,,,space,0.35,,0,45,45,225,1,E, , , , ,space,2000,2,E,001,2021-08-17_17h19.27.206,natb3,2021.2.3,Win32,59.95203837,574c43d35e5491000f3c630f,6107d0959f7c4c3641818b95,611be1566dcf2514999d4d50,
,,,,,,,0,46,46,12,1,X, , , , ,,1500,1.5,E,001,2021-08-17_17h19.27.206,natb3,2021.2.3,Win32,59.95203837,574c43d35e5491000f3c630f,6107d0959f7c4c3641818b95,611be1566dcf2514999d4d50,
,,,,space,0.397,,0,47,47,58,1,L, , , , ,space,2000,2,E,001,2021-08-17_17h19.27.206,natb3,2021.2.3,Win32,59.95203837,574c43d35e5491000f3c630f,6107d0959f7c4c3641818b95,611be1566dcf2514999d4d50,
,,,,space,0.449,,0,48,48,249,1,C, , , , ,space,2000,2,E,001,2021-08-17_17h19.27.206,natb3,2021.2.3,Win32,59.95203837,574c43d35e5491000f3c630f,6107d0959f7c4c3641818b95,611be1566dcf2514999d4d50,
,,,,space,0.313,,0,49,49,14,1,S, , , , ,space,2500,2.5,E,001,2021-08-17_17h19.27.206,natb3,2021.2.3,Win32,59.95203837,574c43d35e5491000f3c630f,6107d0959f7c4c3641818b95,611be1566dcf2514999d4d50,
,,,,space,0.527,,0,50,50,284,1,V, , , , ,space,2500,2.5,E,001,2021-08-17_17h19.27.206,natb3,2021.2.3,Win32,59.95203837,574c43d35e5491000f3c630f,6107d0959f7c4c3641818b95,611be1566dcf2514999d4d50,
,,,,space,0.317,,0,51,51,37,1,E, , , , ,space,2500,2.5,E,001,2021-08-17_17h19.27.206,natb3,2021.2.3,Win32,59.95203837,574c43d35e5491000f3c630f,6107d0959f7c4c3641818b95,611be1566dcf2514999d4d50,
,,,,space,0.286,,0,52,52,202,1,L, , , , ,space,2500,2.5,E,001,2021-08-17_17h19.27.206,natb3,2021.2.3,Win32,59.95203837,574c43d35e5491000f3c630f,6107d0959f7c4c3641818b95,611be1566dcf2514999d4d50,
,,,,space,0.381,,0,53,53,60,1,X,7,3,5, ,,1500,1.5,E,001,2021-08-17_17h19.27.206,natb3,2021.2.3,Win32,59.95203837,574c43d35e5491000f3c630f,6107d0959f7c4c3641818b95,611be1566dcf2514999d4d50,
,,,,,,,0,54,54,233,1,X, ,2, ,5,,1500,1.5,E,001,2021-08-17_17h19.27.206,natb3,2021.2.3,Win32,59.95203837,574c43d35e5491000f3c630f,6107d0959f7c4c3641818b95,611be1566dcf2514999d4d50,
,,,,space,0.38,,0,55,55,234,1,P, , , , ,space,2000,2,E,001,2021-08-17_17h19.27.206,natb3,2021.2.3,Win32,59.95203837,574c43d35e5491000f3c630f,6107d0959f7c4c3641818b95,611be1566dcf2514999d4d50,
,,,,space,0.452,,0,56,56,19,1,G, , , , ,space,1500,1.5,E,001,2021-08-17_17h19.27.206,natb3,2021.2.3,Win32,59.95203837,574c43d35e5491000f3c630f,6107d0959f7c4c3641818b95,611be1566dcf2514999d4d50,
,,,,space,0.336,,0,57,57,81,1,S, , , , ,space,2000,2,E,001,2021-08-17_17h19.27.206,natb3,2021.2.3,Win32,59.95203837,574c43d35e5491000f3c630f,6107d0959f7c4c3641818b95,611be1566dcf2514999d4d50,
,,,,space,0.367,,0,58,58,24,1,L, , , , ,space,2500,2.5,E,001,2021-08-17_17h19.27.206,natb3,2021.2.3,Win32,59.95203837,574c43d35e5491000f3c630f,6107d0959f7c4c3641818b95,611be1566dcf2514999d4d50,
,,,,space,0.385,,0,59,59,232,1,O, , , , ,space,2500,2.5,E,001,2021-08-17_17h19.27.206,natb3,2021.2.3,Win32,59.95203837,574c43d35e5491000f3c630f,6107d0959f7c4c3641818b95,611be1566dcf2514999d4d50,
,,,,space,0.334,,0,60,60,196,1,F, , , , ,space,1500,1.5,E,001,2021-08-17_17h19.27.206,natb3,2021.2.3,Win32,59.95203837,574c43d35e5491000f3c630f,6107d0959f7c4c3641818b95,611be1566dcf2514999d4d50,
,,,,space,0.518,,0,61,61,226,1,R, , , , ,space,2000,2,E,001,2021-08-17_17h19.27.206,natb3,2021.2.3,Win32,59.95203837,574c43d35e5491000f3c630f,6107d0959f7c4c3641818b95,611be1566dcf2514999d4d50,
,,,,,,,0,62,62,203,1,X, , , , ,,2500,2.5,E,001,2021-08-17_17h19.27.206,natb3,2021.2.3,Win32,59.95203837,574c43d35e5491000f3c630f,6107d0959f7c4c3641818b95,611be1566dcf2514999d4d50,
,,,,,,,0,63,63,305,1,X, , , , ,,1500,1.5,E,001,2021-08-17_17h19.27.206,natb3,2021.2.3,Win32,59.95203837,574c43d35e5491000f3c630f,6107d0959f7c4c3641818b95,611be1566dcf2514999d4d50,
,,,,,,,0,64,64,51,1,X,7,5,8, ,,1500,1.5,E,001,2021-08-17_17h19.27.206,natb3,2021.2.3,Win32,59.95203837,574c43d35e5491000f3c630f,6107d0959f7c4c3641818b95,611be1566dcf2514999d4d50,
,,,,space,0.599,,0,65,65,159,1,S, , , , ,space,2500,2.5,E,001,2021-08-17_17h19.27.206,natb3,2021.2.3,Win32,59.95203837,574c43d35e5491000f3c630f,6107d0959f7c4c3641818b95,611be1566dcf2514999d4d50,
,,,,space,0.468,,0,66,66,332,1,U, , , , ,space,2000,2,E,001,2021-08-17_17h19.27.206,natb3,2021.2.3,Win32,59.95203837,574c43d35e5491000f3c630f,6107d0959f7c4c3641818b95,611be1566dcf2514999d4d50,
,,,,,,,0,67,67,282,1,X, , , , ,,2500,2.5,E,001,2021-08-17_17h19.27.206,natb3,2021.2.3,Win32,59.95203837,574c43d35e5491000f3c630f,6107d0959f7c4c3641818b95,611be1566dcf2514999d4d50,
,,,,space,0.404,,0,68,68,112,1,Q, , , , ,space,2500,2.5,E,001,2021-08-17_17h19.27.206,natb3,2021.2.3,Win32,59.95203837,574c43d35e5491000f3c630f,6107d0959f7c4c3641818b95,611be1566dcf2514999d4d50,
,,,,space,0.618,,0,69,69,204,1,Z, , , , ,space,2000,2,E,001,2021-08-17_17h19.27.206,natb3,2021.2.3,Win32,59.95203837,574c43d35e5491000f3c630f,6107d0959f7c4c3641818b95,611be1566dcf2514999d4d50,
,,,,,,,0,70,70,216,1,R, , , , ,space,1500,1.5,E,001,2021-08-17_17h19.27.206,natb3,2021.2.3,Win32,59.95203837,574c43d35e5491000f3c630f,6107d0959f7c4c3641818b95,611be1566dcf2514999d4d50,
,,,,space,0.316,,0,71,71,321,1,N, , , , ,space,2000,2,E,001,2021-08-17_17h19.27.206,natb3,2021.2.3,Win32,59.95203837,574c43d35e5491000f3c630f,6107d0959f7c4c3641818b95,611be1566dcf2514999d4d50,
,,,,space,0.567,,0,72,72,109,1,U, , , , ,space,1500,1.5,E,001,2021-08-17_17h19.27.206,natb3,2021.2.3,Win32,59.95203837,574c43d35e5491000f3c630f,6107d0959f7c4c3641818b95,611be1566dcf2514999d4d50,
,,,,space,0.451,,0,73,73,269,1,A, , , , ,space,2500,2.5,E,001,2021-08-17_17h19.27.206,natb3,2021.2.3,Win32,59.95203837,574c43d35e5491000f3c630f,6107d0959f7c4c3641818b95,611be1566dcf2514999d4d50,
,,,,space,0.118,,0,74,74,270,1,S, , , , ,space,1500,1.5,E,001,2021-08-17_17h19.27.206,natb3,2021.2.3,Win32,59.95203837,574c43d35e5491000f3c630f,6107d0959f7c4c3641818b95,611be1566dcf2514999d4d50,
,,,,,,,0,75,75,248,1,X, ,1,5, ,,1500,1.5,E,001,2021-08-17_17h19.27.206,natb3,2021.2.3,Win32,59.95203837,574c43d35e5491000f3c630f,6107d0959f7c4c3641818b95,611be1566dcf2514999d4d50,
,,,,space,0.432,,0,76,76,261,1,T, , , , ,space,2000,2,E,001,2021-08-17_17h19.27.206,natb3,2021.2.3,Win32,59.95203837,574c43d35e5491000f3c630f,6107d0959f7c4c3641818b95,611be1566dcf2514999d4d50,
,,,,space,0.436,,0,77,77,221,1,I, , , , ,space,2500,2.5,E,001,2021-08-17_17h19.27.206,natb3,2021.2.3,Win32,59.95203837,574c43d35e5491000f3c630f,6107d0959f7c4c3641818b95,611be1566dcf2514999d4d50,
,,,,,,,0,78,78,54,1,X, , , , ,,2000,2,E,001,2021-08-17_17h19.27.206,natb3,2021.2.3,Win32,59.95203837,574c43d35e5491000f3c630f,6107d0959f7c4c3641818b95,611be1566dcf2514999d4d50,
,,,,space,0.465,,0,79,79,188,1,I, , , , ,space,2500,2.5,E,001,2021-08-17_17h19.27.206,natb3,2021.2.3,Win32,59.95203837,574c43d35e5491000f3c630f,6107d0959f7c4c3641818b95,611be1566dcf2514999d4d50,
,,,,,,,0,80,80,182,1,X, , , , ,,1500,1.5,E,001,2021-08-17_17h19.27.206,natb3,2021.2.3,Win32,59.95203837,574c43d35e5491000f3c630f,6107d0959f7c4c3641818b95,611be1566dcf2514999d4d50,
,,,,,,,0,81,81,43,1,X, ,6, ,2,,2500,2.5,E,001,2021-08-17_17h19.27.206,natb3,2021.2.3,Win32,59.95203837,574c43d35e5491000f3c630f,6107d0959f7c4c3641818b95,611be1566dcf2514999d4d50,
,,,,space,0.415,,0,82,82,312,1,K, , , , ,space,2000,2,E,001,2021-08-17_17h19.27.206,natb3,2021.2.3,Win32,59.95203837,574c43d35e5491000f3c630f,6107d0959f7c4c3641818b95,611be1566dcf2514999d4d50,
,,,,,,,0,83,83,89,1,X,3, , , ,,2000,2,E,001,2021-08-17_17h19.27.206,natb3,2021.2.3,Win32,59.95203837,574c43d35e5491000f3c630f,6107d0959f7c4c3641818b95,611be1566dcf2514999d4d50,
,,,,space,0.39,,0,84,84,150,1,T, , , , ,space,2500,2.5,E,001,2021-08-17_17h19.27.206,natb3,2021.2.3,Win32,59.95203837,574c43d35e5491000f3c630f,6107d0959f7c4c3641818b95,611be1566dcf2514999d4d50,
,,,,space,0.569,,0,85,85,62,1,V, , , , ,space,1500,1.5,E,001,2021-08-17_17h19.27.206,natb3,2021.2.3,Win32,59.95203837,574c43d35e5491000f3c630f,6107d0959f7c4c3641818b95,611be1566dcf2514999d4d50,
,,,,,,,0,86,86,33,1,X, , , , ,,1500,1.5,E,001,2021-08-17_17h19.27.206,natb3,2021.2.3,Win32,59.95203837,574c43d35e5491000f3c630f,6107d0959f7c4c3641818b95,611be1566dcf2514999d4d50,
,,,,space,0.435,,0,87,87,317,1,C, , , , ,space,2000,2,E,001,2021-08-17_17h19.27.206,natb3,2021.2.3,Win32,59.95203837,574c43d35e5491000f3c630f,6107d0959f7c4c3641818b95,611be1566dcf2514999d4d50,
,,,,,,,0,88,88,213,1,X, , , , ,,2500,2.5,E,001,2021-08-17_17h19.27.206,natb3,2021.2.3,Win32,59.95203837,574c43d35e5491000f3c630f,6107d0959f7c4c3641818b95,611be1566dcf2514999d4d50,
,,,,space,0.454,,0,89,89,95,1,V, , , , ,space,1500,1.5,E,001,2021-08-17_17h19.27.206,natb3,2021.2.3,Win32,59.95203837,574c43d35e5491000f3c630f,6107d0959f7c4c3641818b95,611be1566dcf2514999d4d50,
,,,,,,,0,90,90,78,1,X, , , , ,,2000,2,E,001,2021-08-17_17h19.27.206,natb3,2021.2.3,Win32,59.95203837,574c43d35e5491000f3c630f,6107d0959f7c4c3641818b95,611be1566dcf2514999d4d50,
,,,,space,0.468,,0,91,91,120,1,U, , , , ,space,1500,1.5,E,001,2021-08-17_17h19.27.206,natb3,2021.2.3,Win32,59.95203837,574c43d35e5491000f3c630f,6107d0959f7c4c3641818b95,611be1566dcf2514999d4d50,
,,,,space,0.423,,0,92,92,144,1,Q, , , , ,space,2500,2.5,E,001,2021-08-17_17h19.27.206,natb3,2021.2.3,Win32,59.95203837,574c43d35e5491000f3c630f,6107d0959f7c4c3641818b95,611be1566dcf2514999d4d50,
,,,,space,0.484,,0,93,93,238,1,D, , , , ,space,1500,1.5,E,001,2021-08-17_17h19.27.206,natb3,2021.2.3,Win32,59.95203837,574c43d35e5491000f3c630f,6107d0959f7c4c3641818b95,611be1566dcf2514999d4d50,
,,,,,,,0,94,94,200,1,X,7, ,5,3,,1500,1.5,E,001,2021-08-17_17h19.27.206,natb3,2021.2.3,Win32,59.95203837,574c43d35e5491000f3c630f,6107d0959f7c4c3641818b95,611be1566dcf2514999d4d50,
,,,,,,,0,95,95,148,1,X, , , , ,,2000,2,E,001,2021-08-17_17h19.27.206,natb3,2021.2.3,Win32,59.95203837,574c43d35e5491000f3c630f,6107d0959f7c4c3641818b95,611be1566dcf2514999d4d50,
,,,,space,0.638,,0,96,96,240,1,F, , , , ,space,2500,2.5,E,001,2021-08-17_17h19.27.206,natb3,2021.2.3,Win32,59.95203837,574c43d35e5491000f3c630f,6107d0959f7c4c3641818b95,611be1566dcf2514999d4d50,
,,,,space,0.616,,0,97,97,36,1,W, , , , ,space,2000,2,E,001,2021-08-17_17h19.27.206,natb3,2021.2.3,Win32,59.95203837,574c43d35e5491000f3c630f,6107d0959f7c4c3641818b95,611be1566dcf2514999d4d50,
,,,,space,0.351,,0,98,98,253,1,N, , , , ,space,2500,2.5,E,001,2021-08-17_17h19.27.206,natb3,2021.2.3,Win32,59.95203837,574c43d35e5491000f3c630f,6107d0959f7c4c3641818b95,611be1566dcf2514999d4d50,
,,,,space,0.338,,0,99,99,163,1,G, , , , ,space,2500,2.5,E,001,2021-08-17_17h19.27.206,natb3,2021.2.3,Win32,59.95203837,574c43d35e5491000f3c630f,6107d0959f7c4c3641818b95,611be1566dcf2514999d4d50,
,,,,space,0.401,,0,100,100,97,1,B, , , , ,space,2500,2.5,E,001,2021-08-17_17h19.27.206,natb3,2021.2.3,Win32,59.95203837,574c43d35e5491000f3c630f,6107d0959f7c4c3641818b95,611be1566dcf2514999d4d50,
,,,,space,0.449,,0,101,101,230,1,U, , , , ,space,1500,1.5,E,001,2021-08-17_17h19.27.206,natb3,2021.2.3,Win32,59.95203837,574c43d35e5491000f3c630f,6107d0959f7c4c3641818b95,611be1566dcf2514999d4d50,
,,,,,,,0,102,102,118,1,X, , , , ,,2000,2,E,001,2021-08-17_17h19.27.206,natb3,2021.2.3,Win32,59.95203837,574c43d35e5491000f3c630f,6107d0959f7c4c3641818b95,611be1566dcf2514999d4d50,
,,,,space,0.401,,0,103,103,127,1,S, , , , ,space,2500,2.5,E,001,2021-08-17_17h19.27.206,natb3,2021.2.3,Win32,59.95203837,574c43d35e5491000f3c630f,6107d0959f7c4c3641818b95,611be1566dcf2514999d4d50,
,,,,space,0.602,,0,104,104,136,1,Z, , , , ,space,2500,2.5,E,001,2021-08-17_17h19.27.206,natb3,2021.2.3,Win32,59.95203837,574c43d35e5491000f3c630f,6107d0959f7c4c3641818b95,611be1566dcf2514999d4d50,
,,,,space,0.351,,0,105,105,13,1,A, , , , ,space,2000,2,E,001,2021-08-17_17h19.27.206,natb3,2021.2.3,Win32,59.95203837,574c43d35e5491000f3c630f,6107d0959f7c4c3641818b95,611be1566dcf2514999d4d50,
,,,,space,0.384,,0,106,106,320,1,B, , , , ,space,1500,1.5,E,001,2021-08-17_17h19.27.206,natb3,2021.2.3,Win32,59.95203837,574c43d35e5491000f3c630f,6107d0959f7c4c3641818b95,611be1566dcf2514999d4d50,
,,,,space,0.49,,0,107,107,113,1,W, , , , ,space,2500,2.5,E,001,2021-08-17_17h19.27.206,natb3,2021.2.3,Win32,59.95203837,574c43d35e5491000f3c630f,6107d0959f7c4c3641818b95,611be1566dcf2514999d4d50,
,,,,space,0.435,,0,108,108,71,1,R, , , , ,space,2500,2.5,E,001,2021-08-17_17h19.27.206,natb3,2021.2.3,Win32,59.95203837,574c43d35e5491000f3c630f,6107d0959f7c4c3641818b95,611be1566dcf2514999d4d50,
,,,,,,,0,109,109,162,1,X,1,6, ,2,,1500,1.5,E,001,2021-08-17_17h19.27.206,natb3,2021.2.3,Win32,59.95203837,574c43d35e5491000f3c630f,6107d0959f7c4c3641818b95,611be1566dcf2514999d4d50,
,,,,space,0.496,,0,110,110,231,1,I, , , , ,space,2500,2.5,E,001,2021-08-17_17h19.27.206,natb3,2021.2.3,Win32,59.95203837,574c43d35e5491000f3c630f,6107d0959f7c4c3641818b95,611be1566dcf2514999d4d50,
,,,,,,,0,111,111,318,1,X, , , , ,,1500,1.5,E,001,2021-08-17_17h19.27.206,natb3,2021.2.3,Win32,59.95203837,574c43d35e5491000f3c630f,6107d0959f7c4c3641818b95,611be1566dcf2514999d4d50,
,,,,space,0.6,,0,112,112,151,1,Y, , , , ,space,2500,2.5,E,001,2021-08-17_17h19.27.206,natb3,2021.2.3,Win32,59.95203837,574c43d35e5491000f3c630f,6107d0959f7c4c3641818b95,611be1566dcf2514999d4d50,
,,,,space,0.4,,0,113,113,192,1,A, , , , ,space,2000,2,E,001,2021-08-17_17h19.27.206,natb3,2021.2.3,Win32,59.95203837,574c43d35e5491000f3c630f,6107d0959f7c4c3641818b95,611be1566dcf2514999d4d50,
,,,,space,0.451,,0,114,114,21,1,J, , , , ,space,1500,1.5,E,001,2021-08-17_17h19.27.206,natb3,2021.2.3,Win32,59.95203837,574c43d35e5491000f3c630f,6107d0959f7c4c3641818b95,611be1566dcf2514999d4d50,
,,,,,,,0,115,115,271,1,X, , , , ,,2500,2.5,E,001,2021-08-17_17h19.27.206,natb3,2021.2.3,Win32,59.95203837,574c43d35e5491000f3c630f,6107d0959f7c4c3641818b95,611be1566dcf2514999d4d50,
,,,,space,0.507,,0,116,116,28,1,V, , , , ,space,1500,1.5,E,001,2021-08-17_17h19.27.206,natb3,2021.2.3,Win32,59.95203837,574c43d35e5491000f3c630f,6107d0959f7c4c3641818b95,611be1566dcf2514999d4d50,
,,,,space,0.768,,0,117,117,50,1,D, , , , ,space,1500,1.5,E,001,2021-08-17_17h19.27.206,natb3,2021.2.3,Win32,59.95203837,574c43d35e5491000f3c630f,6107d0959f7c4c3641818b95,611be1566dcf2514999d4d50,
,,,,space,0.584,,0,118,118,59,1,Z, , , , ,space,2000,2,E,001,2021-08-17_17h19.27.206,natb3,2021.2.3,Win32,59.95203837,574c43d35e5491000f3c630f,6107d0959f7c4c3641818b95,611be1566dcf2514999d4d50,
,,,,space,0.517,,0,119,119,280,1,L, , , , ,space,1500,1.5,E,001,2021-08-17_17h19.27.206,natb3,2021.2.3,Win32,59.95203837,574c43d35e5491000f3c630f,6107d0959f7c4c3641818b95,611be1566dcf2514999d4d50,
,,,,,,,0,120,120,291,1,X, , , , ,,2000,2,E,001,2021-08-17_17h19.27.206,natb3,2021.2.3,Win32,59.95203837,574c43d35e5491000f3c630f,6107d0959f7c4c3641818b95,611be1566dcf2514999d4d50,
,,,,space,0.518,,0,121,121,22,1,K, , , , ,space,2000,2,E,001,2021-08-17_17h19.27.206,natb3,2021.2.3,Win32,59.95203837,574c43d35e5491000f3c630f,6107d0959f7c4c3641818b95,611be1566dcf2514999d4d50,
,,,,,,,0,122,122,138,1,X,8,5, ,3,,2000,2,E,001,2021-08-17_17h19.27.206,natb3,2021.2.3,Win32,59.95203837,574c43d35e5491000f3c630f,6107d0959f7c4c3641818b95,611be1566dcf2514999d4d50,
,,,,space,0.461,,0,123,123,184,1,T, , , , ,space,2000,2,E,001,2021-08-17_17h19.27.206,natb3,2021.2.3,Win32,59.95203837,574c43d35e5491000f3c630f,6107d0959f7c4c3641818b95,611be1566dcf2514999d4d50,
,,,,,,,0,124,124,125,1,X, , , , ,,2000,2,E,001,2021-08-17_17h19.27.206,natb3,2021.2.3,Win32,59.95203837,574c43d35e5491000f3c630f,6107d0959f7c4c3641818b95,611be1566dcf2514999d4d50,
,,,,space,0.45,,0,125,125,293,1,R, , , , ,space,2500,2.5,E,001,2021-08-17_17h19.27.206,natb3,2021.2.3,Win32,59.95203837,574c43d35e5491000f3c630f,6107d0959f7c4c3641818b95,611be1566dcf2514999d4d50,
,,,,space,0.421,,0,126,126,324,1,Q, , , , ,space,2000,2,E,001,2021-08-17_17h19.27.206,natb3,2021.2.3,Win32,59.95203837,574c43d35e5491000f3c630f,6107d0959f7c4c3641818b95,611be1566dcf2514999d4d50,
,,,,space,0.437,,0,127,127,101,1,Q, , , , ,space,2500,2.5,E,001,2021-08-17_17h19.27.206,natb3,2021.2.3,Win32,59.95203837,574c43d35e5491000f3c630f,6107d0959f7c4c3641818b95,611be1566dcf2514999d4d50,
,,,,space,0.485,,0,128,128,265,1,I, , , , ,space,2000,2,E,001,2021-08-17_17h19.27.206,natb3,2021.2.3,Win32,59.95203837,574c43d35e5491000f3c630f,6107d0959f7c4c3641818b95,611be1566dcf2514999d4d50,
,,,,,,,0,129,129,122,1,X,1, , ,8,,1500,1.5,E,001,2021-08-17_17h19.27.206,natb3,2021.2.3,Win32,59.95203837,574c43d35e5491000f3c630f,6107d0959f7c4c3641818b95,611be1566dcf2514999d4d50,
,,,,space,0.565,,0,130,130,281,1,Z, , , , ,space,1500,1.5,E,001,2021-08-17_17h19.27.206,natb3,2021.2.3,Win32,59.95203837,574c43d35e5491000f3c630f,6107d0959f7c4c3641818b95,611be1566dcf2514999d4d50,
,,,,space,0.384,,0,131,131,80,1,A, , , , ,space,2000,2,E,001,2021-08-17_17h19.27.206,natb3,2021.2.3,Win32,59.95203837,574c43d35e5491000f3c630f,6107d0959f7c4c3641818b95,611be1566dcf2514999d4d50,
,,,,space,0.42,,0,132,132,177,1,M, , , , ,space,2500,2.5,E,001,2021-08-17_17h19.27.206,natb3,2021.2.3,Win32,59.95203837,574c43d35e5491000f3c630f,6107d0959f7c4c3641818b95,611be1566dcf2514999d4d50,
,,,,,,,0,133,133,175,1,X,7, ,4,2,,1500,1.5,E,001,2021-08-17_17h19.27.206,natb3,2021.2.3,Win32,59.95203837,574c43d35e5491000f3c630f,6107d0959f7c4c3641818b95,611be1566dcf2514999d4d50,
,,,,space,0.385,,0,134,134,169,1,L, , , , ,space,2500,2.5,E,001,2021-08-17_17h19.27.206,natb3,2021.2.3,Win32,59.95203837,574c43d35e5491000f3c630f,6107d0959f7c4c3641818b95,611be1566dcf2514999d4d50,
,,,,space,0.706,,0,135,135,191,1,X,1, ,3,4,,2500,2.5,E,001,2021-08-17_17h19.27.206,natb3,2021.2.3,Win32,59.95203837,574c43d35e5491000f3c630f,6107d0959f7c4c3641818b95,611be1566dcf2514999d4d50,
,,,,space,0.428,,0,136,136,173,1,V, , , , ,space,1500,1.5,E,001,2021-08-17_17h19.27.206,natb3,2021.2.3,Win32,59.95203837,574c43d35e5491000f3c630f,6107d0959f7c4c3641818b95,611be1566dcf2514999d4d50,
,,,,space,0.418,,0,137,137,156,1,P, , , , ,space,1500,1.5,E,001,2021-08-17_17h19.27.206,natb3,2021.2.3,Win32,59.95203837,574c43d35e5491000f3c630f,6107d0959f7c4c3641818b95,611be1566dcf2514999d4d50,
,,,,space,0.436,,0,138,138,224,1,W, , , , ,space,1500,1.5,E,001,2021-08-17_17h19.27.206,natb3,2021.2.3,Win32,59.95203837,574c43d35e5491000f3c630f,6107d0959f7c4c3641818b95,611be1566dcf2514999d4d50,
,,,,space,0.284,,0,139,139,17,1,F, , , , ,space,2500,2.5,E,001,2021-08-17_17h19.27.206,natb3,2021.2.3,Win32,59.95203837,574c43d35e5491000f3c630f,6107d0959f7c4c3641818b95,611be1566dcf2514999d4d50,
,,,,space,0.353,,0,140,140,194,1,D, , , , ,space,2000,2,E,001,2021-08-17_17h19.27.206,natb3,2021.2.3,Win32,59.95203837,574c43d35e5491000f3c630f,6107d0959f7c4c3641818b95,611be1566dcf2514999d4d50,
,,,,space,0.365,,0,141,141,88,1,J, , , , ,space,2500,2.5,E,001,2021-08-17_17h19.27.206,natb3,2021.2.3,Win32,59.95203837,574c43d35e5491000f3c630f,6107d0959f7c4c3641818b95,611be1566dcf2514999d4d50,
,,,,space,0.334,,0,142,142,205,1,C, , , , ,space,2000,2,E,001,2021-08-17_17h19.27.206,natb3,2021.2.3,Win32,59.95203837,574c43d35e5491000f3c630f,6107d0959f7c4c3641818b95,611be1566dcf2514999d4d50,
,,,,space,0.302,,0,143,143,48,1,A, , , , ,space,2500,2.5,E,001,2021-08-17_17h19.27.206,natb3,2021.2.3,Win32,59.95203837,574c43d35e5491000f3c630f,6107d0959f7c4c3641818b95,611be1566dcf2514999d4d50,
,,,,space,0.436,,0,144,144,206,1,V, , , , ,space,2000,2,E,001,2021-08-17_17h19.27.206,natb3,2021.2.3,Win32,59.95203837,574c43d35e5491000f3c630f,6107d0959f7c4c3641818b95,611be1566dcf2514999d4d50,
,,,,space,0.318,,0,145,145,64,1,N, , , , ,space,2000,2,E,001,2021-08-17_17h19.27.206,natb3,2021.2.3,Win32,59.95203837,574c43d35e5491000f3c630f,6107d0959f7c4c3641818b95,611be1566dcf2514999d4d50,
,,,,,,,0,146,146,141,1,X,1, ,4,6,,1500,1.5,E,001,2021-08-17_17h19.27.206,natb3,2021.2.3,Win32,59.95203837,574c43d35e5491000f3c630f,6107d0959f7c4c3641818b95,611be1566dcf2514999d4d50,
,,,,space,0.432,,0,147,147,306,1,D, , , , ,space,2000,2,E,001,2021-08-17_17h19.27.206,natb3,2021.2.3,Win32,59.95203837,574c43d35e5491000f3c630f,6107d0959f7c4c3641818b95,611be1566dcf2514999d4d50,
,,,,space,0.402,,0,148,148,209,1,N, , , , ,space,2000,2,E,001,2021-08-17_17h19.27.206,natb3,2021.2.3,Win32,59.95203837,574c43d35e5491000f3c630f,6107d0959f7c4c3641818b95,611be1566dcf2514999d4d50,
,,,,space,0.381,,0,149,149,128,1,D, , , , ,space,2500,2.5,E,001,2021-08-17_17h19.27.206,natb3,2021.2.3,Win32,59.95203837,574c43d35e5491000f3c630f,6107d0959f7c4c3641818b95,611be1566dcf2514999d4d50,
,,,,space,0.401,,0,150,150,40,1,T, , , , ,space,1500,1.5,E,001,2021-08-17_17h19.27.206,natb3,2021.2.3,Win32,59.95203837,574c43d35e5491000f3c630f,6107d0959f7c4c3641818b95,611be1566dcf2514999d4d50,
,,,,space,0.366,,0,151,151,157,1,A, , , , ,space,2500,2.5,E,001,2021-08-17_17h19.27.206,natb3,2021.2.3,Win32,59.95203837,574c43d35e5491000f3c630f,6107d0959f7c4c3641818b95,611be1566dcf2514999d4d50,
,,,,space,0.437,,0,152,152,237,1,S, , , , ,space,1500,1.5,E,001,2021-08-17_17h19.27.206,natb3,2021.2.3,Win32,59.95203837,574c43d35e5491000f3c630f,6107d0959f7c4c3641818b95,611be1566dcf2514999d4d50,
,,,,space,0.421,,0,153,153,111,1,O, , , , ,space,2000,2,E,001,2021-08-17_17h19.27.206,natb3,2021.2.3,Win32,59.95203837,574c43d35e5491000f3c630f,6107d0959f7c4c3641818b95,611be1566dcf2514999d4d50,
,,,,space,0.384,,0,154,154,235,1,A, , , , ,space,1500,1.5,E,001,2021-08-17_17h19.27.206,natb3,2021.2.3,Win32,59.95203837,574c43d35e5491000f3c630f,6107d0959f7c4c3641818b95,611be1566dcf2514999d4d50,
,,,,space,0.35,,0,155,155,0,1,Q, , , , ,space,1500,1.5,E,001,2021-08-17_17h19.27.206,natb3,2021.2.3,Win32,59.95203837,574c43d35e5491000f3c630f,6107d0959f7c4c3641818b95,611be1566dcf2514999d4d50,
,,,,,,,0,156,156,66,1,X, ,4,7, ,,2000,2,E,001,2021-08-17_17h19.27.206,natb3,2021.2.3,Win32,59.95203837,574c43d35e5491000f3c630f,6107d0959f7c4c3641818b95,611be1566dcf2514999d4d50,
,,,,space,0.334,,0,157,157,242,1,H, , , , ,space,2500,2.5,E,001,2021-08-17_17h19.27.206,natb3,2021.2.3,Win32,59.95203837,574c43d35e5491000f3c630f,6107d0959f7c4c3641818b95,611be1566dcf2514999d4d50,
,,,,space,0.318,,0,158,158,103,1,W, , , , ,space,2000,2,E,001,2021-08-17_17h19.27.206,natb3,2021.2.3,Win32,59.95203837,574c43d35e5491000f3c630f,6107d0959f7c4c3641818b95,611be1566dcf2514999d4d50,
,,,,,,,0,159,159,166,1,X, , , , ,,2000,2,E,001,2021-08-17_17h19.27.206,natb3,2021.2.3,Win32,59.95203837,574c43d35e5491000f3c630f,6107d0959f7c4c3641818b95,611be1566dcf2514999d4d50,
,,,,space,0.365,,0,160,160,38,1,R, , , , ,space,2500,2.5,E,001,2021-08-17_17h19.27.206,natb3,2021.2.3,Win32,59.95203837,574c43d35e5491000f3c630f,6107d0959f7c4c3641818b95,611be1566dcf2514999d4d50,
,,,,space,0.87,,0,161,161,73,1,Y, , , , ,space,2000,2,E,001,2021-08-17_17h19.27.206,natb3,2021.2.3,Win32,59.95203837,574c43d35e5491000f3c630f,6107d0959f7c4c3641818b95,611be1566dcf2514999d4d50,
,,,,,,,0,162,162,18,1,X, ,2,5,8,,2500,2.5,E,001,2021-08-17_17h19.27.206,natb3,2021.2.3,Win32,59.95203837,574c43d35e5491000f3c630f,6107d0959f7c4c3641818b95,611be1566dcf2514999d4d50,
,,,,space,0.474,,0,163,163,132,1,H, , , , ,space,2500,2.5,E,001,2021-08-17_17h19.27.206,natb3,2021.2.3,Win32,59.95203837,574c43d35e5491000f3c630f,6107d0959f7c4c3641818b95,611be1566dcf2514999d4d50,
,,,,,,,0,164,164,129,1,X,2,3,5, ,,1500,1.5,E,001,2021-08-17_17h19.27.206,natb3,2021.2.3,Win32,59.95203837,574c43d35e5491000f3c630f,6107d0959f7c4c3641818b95,611be1566dcf2514999d4d50,
,,,,space,0.731,,0,165,165,310,1,J, , , , ,space,2500,2.5,E,001,2021-08-17_17h19.27.206,natb3,2021.2.3,Win32,59.95203837,574c43d35e5491000f3c630f,6107d0959f7c4c3641818b95,611be1566dcf2514999d4d50,
,,,,space,0.352,,0,166,166,285,1,B, , , , ,space,1500,1.5,E,001,2021-08-17_17h19.27.206,natb3,2021.2.3,Win32,59.95203837,574c43d35e5491000f3c630f,6107d0959f7c4c3641818b95,611be1566dcf2514999d4d50,
,,,,space,0.519,space,0,167,167,131,1,G, , , , ,space,1500,1.5,E,001,2021-08-17_17h19.27.206,natb3,2021.2.3,Win32,59.95203837,574c43d35e5491000f3c630f,6107d0959f7c4c3641818b95,611be1566dcf2514999d4d50,41.219
,,,,space,0.419,,0,168,168,16,1,D, , , , ,space,1500,1.5,E,001,2021-08-17_17h19.27.206,natb3,2021.2.3,Win32,59.95203837,574c43d35e5491000f3c630f,6107d0959f7c4c3641818b95,611be1566dcf2514999d4d50,
,,,,space,0.404,,0,169,169,208,1,B, , , , ,space,1500,1.5,E,001,2021-08-17_17h19.27.206,natb3,2021.2.3,Win32,59.95203837,574c43d35e5491000f3c630f,6107d0959f7c4c3641818b95,611be1566dcf2514999d4d50,
,,,,space,0.537,,0,170,170,298,1,I, , , , ,space,2000,2,E,001,2021-08-17_17h19.27.206,natb3,2021.2.3,Win32,59.95203837,574c43d35e5491000f3c630f,6107d0959f7c4c3641818b95,611be1566dcf2514999d4d50,
,,,,space,0.521,,0,171,171,276,1,H, , , , ,space,2000,2,E,001,2021-08-17_17h19.27.206,natb3,2021.2.3,Win32,59.95203837,574c43d35e5491000f3c630f,6107d0959f7c4c3641818b95,611be1566dcf2514999d4d50,
,,,,space,0.435,,0,172,172,2,1,E, , , , ,space,2500,2.5,E,001,2021-08-17_17h19.27.206,natb3,2021.2.3,Win32,59.95203837,574c43d35e5491000f3c630f,6107d0959f7c4c3641818b95,611be1566dcf2514999d4d50,
,,,,space,0.336,,0,173,173,183,1,R, , , , ,space,1500,1.5,E,001,2021-08-17_17h19.27.206,natb3,2021.2.3,Win32,59.95203837,574c43d35e5491000f3c630f,6107d0959f7c4c3641818b95,611be1566dcf2514999d4d50,
,,,,space,0.37,,0,174,174,104,1,E, , , , ,space,2000,2,E,001,2021-08-17_17h19.27.206,natb3,2021.2.3,Win32,59.95203837,574c43d35e5491000f3c630f,6107d0959f7c4c3641818b95,611be1566dcf2514999d4d50,
,,,,space,0.435,,0,175,175,197,1,G, , , , ,space,2500,2.5,E,001,2021-08-17_17h19.27.206,natb3,2021.2.3,Win32,59.95203837,574c43d35e5491000f3c630f,6107d0959f7c4c3641818b95,611be1566dcf2514999d4d50,
,,,,space,0.534,,0,176,176,223,1,Q, , , , ,space,2000,2,E,001,2021-08-17_17h19.27.206,natb3,2021.2.3,Win32,59.95203837,574c43d35e5491000f3c630f,6107d0959f7c4c3641818b95,611be1566dcf2514999d4d50,
,,,,space,0.533,,0,177,177,263,1,X,4, ,6, ,,1500,1.5,E,001,2021-08-17_17h19.27.206,natb3,2021.2.3,Win32,59.95203837,574c43d35e5491000f3c630f,6107d0959f7c4c3641818b95,611be1566dcf2514999d4d50,
,,,,space,0.347,,0,178,178,137,1,C, , , , ,space,2500,2.5,E,001,2021-08-17_17h19.27.206,natb3,2021.2.3,Win32,59.95203837,574c43d35e5491000f3c630f,6107d0959f7c4c3641818b95,611be1566dcf2514999d4d50,
,,,,space,0.484,,0,179,179,215,1,E, , , , ,space,2500,2.5,E,001,2021-08-17_17h19.27.206,natb3,2021.2.3,Win32,59.95203837,574c43d35e5491000f3c630f,6107d0959f7c4c3641818b95,611be1566dcf2514999d4d50,
,,,,space,0.535,,0,180,180,155,1,O, , , , ,space,1500,1.5,E,001,2021-08-17_17h19.27.206,natb3,2021.2.3,Win32,59.95203837,574c43d35e5491000f3c630f,6107d0959f7c4c3641818b95,611be1566dcf2514999d4d50,
,,,,space,0.336,,0,181,181,10,1,O, , , , ,space,2000,2,E,001,2021-08-17_17h19.27.206,natb3,2021.2.3,Win32,59.95203837,574c43d35e5491000f3c630f,6107d0959f7c4c3641818b95,611be1566dcf2514999d4d50,
,,,,space,0.318,,0,182,182,193,1,S, , , , ,space,2500,2.5,E,001,2021-08-17_17h19.27.206,natb3,2021.2.3,Win32,59.95203837,574c43d35e5491000f3c630f,6107d0959f7c4c3641818b95,611be1566dcf2514999d4d50,
,,,,space,0.497,,0,183,183,174,1,B, , , , ,space,2500,2.5,E,001,2021-08-17_17h19.27.206,natb3,2021.2.3,Win32,59.95203837,574c43d35e5491000f3c630f,6107d0959f7c4c3641818b95,611be1566dcf2514999d4d50,
,,,,space,0.501,,0,184,184,275,1,G, , , , ,space,1500,1.5,E,001,2021-08-17_17h19.27.206,natb3,2021.2.3,Win32,59.95203837,574c43d35e5491000f3c630f,6107d0959f7c4c3641818b95,611be1566dcf2514999d4d50,
,,,,space,0.451,,0,185,185,323,1,M, , , , ,space,2500,2.5,E,001,2021-08-17_17h19.27.206,natb3,2021.2.3,Win32,59.95203837,574c43d35e5491000f3c630f,6107d0959f7c4c3641818b95,611be1566dcf2514999d4d50,
,,,,space,0.4,,0,186,186,34,1,Q, , , , ,space,2500,2.5,E,001,2021-08-17_17h19.27.206,natb3,2021.2.3,Win32,59.95203837,574c43d35e5491000f3c630f,6107d0959f7c4c3641818b95,611be1566dcf2514999d4d50,
,,,,space,0.463,,0,187,187,152,1,U, , , , ,space,2000,2,E,001,2021-08-17_17h19.27.206,natb3,2021.2.3,Win32,59.95203837,574c43d35e5491000f3c630f,6107d0959f7c4c3641818b95,611be1566dcf2514999d4d50,
,,,,space,0.77,,0,188,188,160,1,D, , , , ,space,1500,1.5,E,001,2021-08-17_17h19.27.206,natb3,2021.2.3,Win32,59.95203837,574c43d35e5491000f3c630f,6107d0959f7c4c3641818b95,611be1566dcf2514999d4d50,
,,,,space,0.501,,0,189,189,256,1,Q, , , , ,space,2000,2,E,001,2021-08-17_17h19.27.206,natb3,2021.2.3,Win32,59.95203837,574c43d35e5491000f3c630f,6107d0959f7c4c3641818b95,611be1566dcf2514999d4d50,
,,,,space,0.435,,0,190,190,289,1,Q, , , , ,space,2000,2,E,001,2021-08-17_17h19.27.206,natb3,2021.2.3,Win32,59.95203837,574c43d35e5491000f3c630f,6107d0959f7c4c3641818b95,611be1566dcf2514999d4d50,
,,,,,,,0,191,191,179,1,X, ,9, ,2,,1500,1.5,E,001,2021-08-17_17h19.27.206,natb3,2021.2.3,Win32,59.95203837,574c43d35e5491000f3c630f,6107d0959f7c4c3641818b95,611be1566dcf2514999d4d50,
,,,,space,0.485,,0,192,192,11,1,P, , , , ,space,2500,2.5,E,001,2021-08-17_17h19.27.206,natb3,2021.2.3,Win32,59.95203837,574c43d35e5491000f3c630f,6107d0959f7c4c3641818b95,611be1566dcf2514999d4d50,
,,,,space,0.552,,0,193,193,56,1,J, , , , ,space,1500,1.5,E,001,2021-08-17_17h19.27.206,natb3,2021.2.3,Win32,59.95203837,574c43d35e5491000f3c630f,6107d0959f7c4c3641818b95,611be1566dcf2514999d4d50,
,,,,space,0.451,,0,194,194,126,1,A, , , , ,space,2500,2.5,E,001,2021-08-17_17h19.27.206,natb3,2021.2.3,Win32,59.95203837,574c43d35e5491000f3c630f,6107d0959f7c4c3641818b95,611be1566dcf2514999d4d50,
,,,,space,0.636,,0,195,195,288,1,M, , , , ,space,1500,1.5,E,001,2021-08-17_17h19.27.206,natb3,2021.2.3,Win32,59.95203837,574c43d35e5491000f3c630f,6107d0959f7c4c3641818b95,611be1566dcf2514999d4d50,
,,,,space,0.485,,0,196,196,212,1,Q, , , , ,space,2500,2.5,E,001,2021-08-17_17h19.27.206,natb3,2021.2.3,Win32,59.95203837,574c43d35e5491000f3c630f,6107d0959f7c4c3641818b95,611be1566dcf2514999d4d50,
,,,,space,0.385,,0,197,197,246,1,L, , , , ,space,2500,2.5,E,001,2021-08-17_17h19.27.206,natb3,2021.2.3,Win32,59.95203837,574c43d35e5491000f3c630f,6107d0959f7c4c3641818b95,611be1566dcf2514999d4d50,
,,,,space,0.496,,0,198,198,41,1,Y, , , , ,space,2500,2.5,E,001,2021-08-17_17h19.27.206,natb3,2021.2.3,Win32,59.95203837,574c43d35e5491000f3c630f,6107d0959f7c4c3641818b95,611be1566dcf2514999d4d50,
,,,,space,0.368,,0,199,199,176,1,N, , , , ,space,1500,1.5,E,001,2021-08-17_17h19.27.206,natb3,2021.2.3,Win32,59.95203837,574c43d35e5491000f3c630f,6107d0959f7c4c3641818b95,611be1566dcf2514999d4d50,
,,,,space,0.484,,0,200,200,1,1,W, , , , ,space,2000,2,E,001,2021-08-17_17h19.27.206,natb3,2021.2.3,Win32,59.95203837,574c43d35e5491000f3c630f,6107d0959f7c4c3641818b95,611be1566dcf2514999d4d50,
,,,,space,0.452,,0,201,201,333,1,I, , , , ,space,1500,1.5,E,001,2021-08-17_17h19.27.206,natb3,2021.2.3,Win32,59.95203837,574c43d35e5491000f3c630f,6107d0959f7c4c3641818b95,611be1566dcf2514999d4d50,
,,,,space,0.502,,0,202,202,29,1,B, , , , ,space,1500,1.5,E,001,2021-08-17_17h19.27.206,natb3,2021.2.3,Win32,59.95203837,574c43d35e5491000f3c630f,6107d0959f7c4c3641818b95,611be1566dcf2514999d4d50,
,,,,,,,0,203,203,313,1,X, , , , ,,2500,2.5,E,001,2021-08-17_17h19.27.206,natb3,2021.2.3,Win32,59.95203837,574c43d35e5491000f3c630f,6107d0959f7c4c3641818b95,611be1566dcf2514999d4d50,
,,,,space,0.418,,0,204,204,245,1,K, , , , ,space,2000,2,E,001,2021-08-17_17h19.27.206,natb3,2021.2.3,Win32,59.95203837,574c43d35e5491000f3c630f,6107d0959f7c4c3641818b95,611be1566dcf2514999d4d50,
,,,,space,0.343,,0,205,205,274,1,F, , , , ,space,2000,2,E,001,2021-08-17_17h19.27.206,natb3,2021.2.3,Win32,59.95203837,574c43d35e5491000f3c630f,6107d0959f7c4c3641818b95,611be1566dcf2514999d4d50,
,,,,space,0.384,,0,206,206,75,1,U, , , , ,space,1500,1.5,E,001,2021-08-17_17h19.27.206,natb3,2021.2.3,Win32,59.95203837,574c43d35e5491000f3c630f,6107d0959f7c4c3641818b95,611be1566dcf2514999d4d50,
,,,,space,0.618,,0,207,207,57,1,K, , , , ,space,2500,2.5,E,001,2021-08-17_17h19.27.206,natb3,2021.2.3,Win32,59.95203837,574c43d35e5491000f3c630f,6107d0959f7c4c3641818b95,611be1566dcf2514999d4d50,
,,,,,,,0,208,208,259,1,X,8, , ,3,,2500,2.5,E,001,2021-08-17_17h19.27.206,natb3,2021.2.3,Win32,59.95203837,574c43d35e5491000f3c630f,6107d0959f7c4c3641818b95,611be1566dcf2514999d4d50,
,,,,,,,0,209,209,311,1,X,1,2,7,3,,2500,2.5,E,001,2021-08-17_17h19.27.206,natb3,2021.2.3,Win32,59.95203837,574c43d35e5491000f3c630f,6107d0959f7c4c3641818b95,611be1566dcf2514999d4d50,
,,,,,,,0,210,210,102,1,X, ,6, , ,,1500,1.5,E,001,2021-08-17_17h19.27.206,natb3,2021.2.3,Win32,59.95203837,574c43d35e5491000f3c630f,6107d0959f7c4c3641818b95,611be1566dcf2514999d4d50,
,,,,,,,0,211,211,277,1,X,8,5, ,2,,2000,2,E,001,2021-08-17_17h19.27.206,natb3,2021.2.3,Win32,59.95203837,574c43d35e5491000f3c630f,6107d0959f7c4c3641818b95,611be1566dcf2514999d4d50,
,,,,space,0.683,,0,212,212,266,1,O, , , , ,space,1500,1.5,E,001,2021-08-17_17h19.27.206,natb3,2021.2.3,Win32,59.95203837,574c43d35e5491000f3c630f,6107d0959f7c4c3641818b95,611be1566dcf2514999d4d50,
,,,,space,0.619,,0,213,213,3,1,R, , , , ,space,2000,2,E,001,2021-08-17_17h19.27.206,natb3,2021.2.3,Win32,59.95203837,574c43d35e5491000f3c630f,6107d0959f7c4c3641818b95,611be1566dcf2514999d4d50,
,,,,,,,0,214,214,187,1,X, ,3,7,4,,1500,1.5,E,001,2021-08-17_17h19.27.206,natb3,2021.2.3,Win32,59.95203837,574c43d35e5491000f3c630f,6107d0959f7c4c3641818b95,611be1566dcf2514999d4d50,
,,,,space,0.471,,0,215,215,100,1,M, , , , ,space,2000,2,E,001,2021-08-17_17h19.27.206,natb3,2021.2.3,Win32,59.95203837,574c43d35e5491000f3c630f,6107d0959f7c4c3641818b95,611be1566dcf2514999d4d50,
,,,,space,0.967,,0,216,216,47,1,P, , , , ,space,2000,2,E,001,2021-08-17_17h19.27.206,natb3,2021.2.3,Win32,59.95203837,574c43d35e5491000f3c630f,6107d0959f7c4c3641818b95,611be1566dcf2514999d4d50,
,,,,space,0.585,,0,217,217,264,1,U, , , , ,space,2000,2,E,001,2021-08-17_17h19.27.206,natb3,2021.2.3,Win32,59.95203837,574c43d35e5491000f3c630f,6107d0959f7c4c3641818b95,611be1566dcf2514999d4d50,
,,,,space,0.498,,0,218,218,292,1,E, , , , ,space,2000,2,E,001,2021-08-17_17h19.27.206,natb3,2021.2.3,Win32,59.95203837,574c43d35e5491000f3c630f,6107d0959f7c4c3641818b95,611be1566dcf2514999d4d50,
,,,,,,,0,219,219,247,1,Z, , , , ,space,1500,1.5,E,001,2021-08-17_17h19.27.206,natb3,2021.2.3,Win32,59.95203837,574c43d35e5491000f3c630f,6107d0959f7c4c3641818b95,611be1566dcf2514999d4d50,
,,,,,,,0,220,220,287,1,X, ,2, ,9,,2000,2,E,001,2021-08-17_17h19.27.206,natb3,2021.2.3,Win32,59.95203837,574c43d35e5491000f3c630f,6107d0959f7c4c3641818b95,611be1566dcf2514999d4d50,
,,,,space,0.853,,0,221,221,20,1,H, , , , ,space,1500,1.5,E,001,2021-08-17_17h19.27.206,natb3,2021.2.3,Win32,59.95203837,574c43d35e5491000f3c630f,6107d0959f7c4c3641818b95,611be1566dcf2514999d4d50,
,,,,space,0.635,,0,222,222,278,1,J, , , , ,space,2000,2,E,001,2021-08-17_17h19.27.206,natb3,2021.2.3,Win32,59.95203837,574c43d35e5491000f3c630f,6107d0959f7c4c3641818b95,611be1566dcf2514999d4d50,
,,,,space,0.354,,0,223,223,267,1,P, , , , ,space,2000,2,E,001,2021-08-17_17h19.27.206,natb3,2021.2.3,Win32,59.95203837,574c43d35e5491000f3c630f,6107d0959f7c4c3641818b95,611be1566dcf2514999d4d50,
,,,,space,0.368,,0,224,224,279,1,K, , , , ,space,2500,2.5,E,001,2021-08-17_17h19.27.206,natb3,2021.2.3,Win32,59.95203837,574c43d35e5491000f3c630f,6107d0959f7c4c3641818b95,611be1566dcf2514999d4d50,
,,,,space,0.42,,0,225,225,86,1,G, , , , ,space,2000,2,E,001,2021-08-17_17h19.27.206,natb3,2021.2.3,Win32,59.95203837,574c43d35e5491000f3c630f,6107d0959f7c4c3641818b95,611be1566dcf2514999d4d50,
,,,,,,,0,226,226,4,1,X, , , , ,,2000,2,E,001,2021-08-17_17h19.27.206,natb3,2021.2.3,Win32,59.95203837,574c43d35e5491000f3c630f,6107d0959f7c4c3641818b95,611be1566dcf2514999d4d50,
,,,,space,0.501,,0,227,227,77,1,O, , , , ,space,2000,2,E,001,2021-08-17_17h19.27.206,natb3,2021.2.3,Win32,59.95203837,574c43d35e5491000f3c630f,6107d0959f7c4c3641818b95,611be1566dcf2514999d4d50,
,,,,,,,0,228,228,93,1,X,5, ,7, ,,2500,2.5,E,001,2021-08-17_17h19.27.206,natb3,2021.2.3,Win32,59.95203837,574c43d35e5491000f3c630f,6107d0959f7c4c3641818b95,611be1566dcf2514999d4d50,
,,,,,,,0,229,229,299,1,X, , , , ,,2500,2.5,E,001,2021-08-17_17h19.27.206,natb3,2021.2.3,Win32,59.95203837,574c43d35e5491000f3c630f,6107d0959f7c4c3641818b95,611be1566dcf2514999d4d50,
,,,,,,,0,230,230,98,1,X, , , , ,,2500,2.5,E,001,2021-08-17_17h19.27.206,natb3,2021.2.3,Win32,59.95203837,574c43d35e5491000f3c630f,6107d0959f7c4c3641818b95,611be1566dcf2514999d4d50,
,,,,space,0.472,,0,231,231,220,1,U, , , , ,space,2500,2.5,E,001,2021-08-17_17h19.27.206,natb3,2021.2.3,Win32,59.95203837,574c43d35e5491000f3c630f,6107d0959f7c4c3641818b95,611be1566dcf2514999d4d50,
,,,,space,0.5,,0,232,232,228,1,Y, , , , ,space,2000,2,E,001,2021-08-17_17h19.27.206,natb3,2021.2.3,Win32,59.95203837,574c43d35e5491000f3c630f,6107d0959f7c4c3641818b95,611be1566dcf2514999d4d50,
,,,,,,,0,233,233,82,1,X,4,6,1,7,,2000,2,E,001,2021-08-17_17h19.27.206,natb3,2021.2.3,Win32,59.95203837,574c43d35e5491000f3c630f,6107d0959f7c4c3641818b95,611be1566dcf2514999d4d50,
,,,,space,0.772,,0,234,234,214,1,W, , , , ,space,2000,2,E,001,2021-08-17_17h19.27.206,natb3,2021.2.3,Win32,59.95203837,574c43d35e5491000f3c630f,6107d0959f7c4c3641818b95,611be1566dcf2514999d4d50,
,,,,space,0.931,,0,235,235,105,1,R, , , , ,space,2500,2.5,E,001,2021-08-17_17h19.27.206,natb3,2021.2.3,Win32,59.95203837,574c43d35e5491000f3c630f,6107d0959f7c4c3641818b95,611be1566dcf2514999d4d50,
,,,,,,,0,236,236,243,1,X, , , , ,,2500,2.5,E,001,2021-08-17_17h19.27.206,natb3,2021.2.3,Win32,59.95203837,574c43d35e5491000f3c630f,6107d0959f7c4c3641818b95,611be1566dcf2514999d4d50,
,,,,space,0.488,,0,237,237,119,1,Y, , , , ,space,2500,2.5,E,001,2021-08-17_17h19.27.206,natb3,2021.2.3,Win32,59.95203837,574c43d35e5491000f3c630f,6107d0959f7c4c3641818b95,611be1566dcf2514999d4d50,
,,,,space,0.439,,0,238,238,6,1,Y, , , , ,space,2500,2.5,E,001,2021-08-17_17h19.27.206,natb3,2021.2.3,Win32,59.95203837,574c43d35e5491000f3c630f,6107d0959f7c4c3641818b95,611be1566dcf2514999d4d50,
,,,,space,0.388,,0,239,239,304,1,S, , , , ,space,2000,2,E,001,2021-08-17_17h19.27.206,natb3,2021.2.3,Win32,59.95203837,574c43d35e5491000f3c630f,6107d0959f7c4c3641818b95,611be1566dcf2514999d4d50,
,,,,space,0.384,,0,240,240,42,1,U, , , , ,space,1500,1.5,E,001,2021-08-17_17h19.27.206,natb3,2021.2.3,Win32,59.95203837,574c43d35e5491000f3c630f,6107d0959f7c4c3641818b95,611be1566dcf2514999d4d50,
,,,,,,,0,241,241,133,1,X, ,4, ,6,,2500,2.5,E,001,2021-08-17_17h19.27.206,natb3,2021.2.3,Win32,59.95203837,574c43d35e5491000f3c630f,6107d0959f7c4c3641818b95,611be1566dcf2514999d4d50,
,,,,,,,0,242,242,302,1,X, , , , ,,2000,2,E,001,2021-08-17_17h19.27.206,natb3,2021.2.3,Win32,59.95203837,574c43d35e5491000f3c630f,6107d0959f7c4c3641818b95,611be1566dcf2514999d4d50,
,,,,,,,0,243,243,46,1,X, , , , ,,2000,2,E,001,2021-08-17_17h19.27.206,natb3,2021.2.3,Win32,59.95203837,574c43d35e5491000f3c630f,6107d0959f7c4c3641818b95,611be1566dcf2514999d4d50,
,,,,space,0.517,,0,244,244,114,1,E, , , , ,space,2000,2,E,001,2021-08-17_17h19.27.206,natb3,2021.2.3,Win32,59.95203837,574c43d35e5491000f3c630f,6107d0959f7c4c3641818b95,611be1566dcf2514999d4d50,
,,,,space,0.582,,0,245,245,319,1,V, , , , ,space,2000,2,E,001,2021-08-17_17h19.27.206,natb3,2021.2.3,Win32,59.95203837,574c43d35e5491000f3c630f,6107d0959f7c4c3641818b95,611be1566dcf2514999d4d50,
,,,,space,0.354,,0,246,246,30,1,N, , , , ,space,2500,2.5,E,001,2021-08-17_17h19.27.206,natb3,2021.2.3,Win32,59.95203837,574c43d35e5491000f3c630f,6107d0959f7c4c3641818b95,611be1566dcf2514999d4d50,
,,,,space,0.504,,0,247,247,110,1,I, , , , ,space,1500,1.5,E,001,2021-08-17_17h19.27.206,natb3,2021.2.3,Win32,59.95203837,574c43d35e5491000f3c630f,6107d0959f7c4c3641818b95,611be1566dcf2514999d4d50,
,,,,space,0.447,,0,248,248,142,1,N, , , , ,space,2500,2.5,E,001,2021-08-17_17h19.27.206,natb3,2021.2.3,Win32,59.95203837,574c43d35e5491000f3c630f,6107d0959f7c4c3641818b95,611be1566dcf2514999d4d50,
,,,,space,0.466,,0,249,249,55,1,H, , , , ,space,2500,2.5,E,001,2021-08-17_17h19.27.206,natb3,2021.2.3,Win32,59.95203837,574c43d35e5491000f3c630f,6107d0959f7c4c3641818b95,611be1566dcf2514999d4d50,
,,,,,,,0,250,250,325,1,X, , , , ,,2500,2.5,E,001,2021-08-17_17h19.27.206,natb3,2021.2.3,Win32,59.95203837,574c43d35e5491000f3c630f,6107d0959f7c4c3641818b95,611be1566dcf2514999d4d50,
,,,,,,,0,251,251,84,1,X, , , , ,,2000,2,E,001,2021-08-17_17h19.27.206,natb3,2021.2.3,Win32,59.95203837,574c43d35e5491000f3c630f,6107d0959f7c4c3641818b95,611be1566dcf2514999d4d50,
,,,,space,0.434,,0,252,252,314,1,L, , , , ,space,1500,1.5,E,001,2021-08-17_17h19.27.206,natb3,2021.2.3,Win32,59.95203837,574c43d35e5491000f3c630f,6107d0959f7c4c3641818b95,611be1566dcf2514999d4d50,
,,,,space,0.383,,0,253,253,161,1,F, , , , ,space,1500,1.5,E,001,2021-08-17_17h19.27.206,natb3,2021.2.3,Win32,59.95203837,574c43d35e5491000f3c630f,6107d0959f7c4c3641818b95,611be1566dcf2514999d4d50,
,,,,,,,0,254,254,23,1,X,1, ,5, ,,2000,2,E,001,2021-08-17_17h19.27.206,natb3,2021.2.3,Win32,59.95203837,574c43d35e5491000f3c630f,6107d0959f7c4c3641818b95,611be1566dcf2514999d4d50,
,,,,,,,0,255,255,218,1,X,1,3, ,8,,1500,1.5,E,001,2021-08-17_17h19.27.206,natb3,2021.2.3,Win32,59.95203837,574c43d35e5491000f3c630f,6107d0959f7c4c3641818b95,611be1566dcf2514999d4d50,
,,,,,,,0,256,256,211,1,X, , , , ,,2500,2.5,E,001,2021-08-17_17h19.27.206,natb3,2021.2.3,Win32,59.95203837,574c43d35e5491000f3c630f,6107d0959f7c4c3641818b95,611be1566dcf2514999d4d50,
,,,,space,0.594,,0,257,257,45,1,O, , , , ,space,2000,2,E,001,2021-08-17_17h19.27.206,natb3,2021.2.3,Win32,59.95203837,574c43d35e5491000f3c630f,6107d0959f7c4c3641818b95,611be1566dcf2514999d4d50,
,,,,space,0.618,,0,258,258,53,1,G, , , , ,space,2500,2.5,E,001,2021-08-17_17h19.27.206,natb3,2021.2.3,Win32,59.95203837,574c43d35e5491000f3c630f,6107d0959f7c4c3641818b95,611be1566dcf2514999d4d50,
,,,,space,0.667,,0,259,259,190,1,P, , , , ,space,2000,2,E,001,2021-08-17_17h19.27.206,natb3,2021.2.3,Win32,59.95203837,574c43d35e5491000f3c630f,6107d0959f7c4c3641818b95,611be1566dcf2514999d4d50,
,,,,space,0.352,,0,260,260,254,1,M, , , , ,space,1500,1.5,E,001,2021-08-17_17h19.27.206,natb3,2021.2.3,Win32,59.95203837,574c43d35e5491000f3c630f,6107d0959f7c4c3641818b95,611be1566dcf2514999d4d50,
,,,,space,0.445,,0,261,261,172,1,C, , , , ,space,1500,1.5,E,001,2021-08-17_17h19.27.206,natb3,2021.2.3,Win32,59.95203837,574c43d35e5491000f3c630f,6107d0959f7c4c3641818b95,611be1566dcf2514999d4d50,
,,,,,,,0,262,262,39,1,X,6,2, , ,,1500,1.5,E,001,2021-08-17_17h19.27.206,natb3,2021.2.3,Win32,59.95203837,574c43d35e5491000f3c630f,6107d0959f7c4c3641818b95,611be1566dcf2514999d4d50,
,,,,,,,0,263,263,96,1,X, , , , ,,1500,1.5,E,001,2021-08-17_17h19.27.206,natb3,2021.2.3,Win32,59.95203837,574c43d35e5491000f3c630f,6107d0959f7c4c3641818b95,611be1566dcf2514999d4d50,
,,,,,,,0,264,264,94,1,C, , , , ,space,2000,2,E,001,2021-08-17_17h19.27.206,natb3,2021.2.3,Win32,59.95203837,574c43d35e5491000f3c630f,6107d0959f7c4c3641818b95,611be1566dcf2514999d4d50,
,,,,space,0.651,,0,265,265,44,1,I, , , , ,space,2500,2.5,E,001,2021-08-17_17h19.27.206,natb3,2021.2.3,Win32,59.95203837,574c43d35e5491000f3c630f,6107d0959f7c4c3641818b95,611be1566dcf2514999d4d50,
,,,,,,,0,266,266,273,1,X, , , , ,,2000,2,E,001,2021-08-17_17h19.27.206,natb3,2021.2.3,Win32,59.95203837,574c43d35e5491000f3c630f,6107d0959f7c4c3641818b95,611be1566dcf2514999d4d50,
,,,,space,0.499,,0,267,267,262,1,Y, , , , ,space,2500,2.5,E,001,2021-08-17_17h19.27.206,natb3,2021.2.3,Win32,59.95203837,574c43d35e5491000f3c630f,6107d0959f7c4c3641818b95,611be1566dcf2514999d4d50,
,,,,space,0.401,,0,268,268,239,1,X, , , , ,,2000,2,E,001,2021-08-17_17h19.27.206,natb3,2021.2.3,Win32,59.95203837,574c43d35e5491000f3c630f,6107d0959f7c4c3641818b95,611be1566dcf2514999d4d50,
,,,,space,0.582,,0,269,269,146,1,W, , , , ,space,1500,1.5,E,001,2021-08-17_17h19.27.206,natb3,2021.2.3,Win32,59.95203837,574c43d35e5491000f3c630f,6107d0959f7c4c3641818b95,611be1566dcf2514999d4d50,
,,,,space,0.413,,0,270,270,67,1,Q, , , , ,space,2000,2,E,001,2021-08-17_17h19.27.206,natb3,2021.2.3,Win32,59.95203837,574c43d35e5491000f3c630f,6107d0959f7c4c3641818b95,611be1566dcf2514999d4d50,
,,,,space,0.404,,0,271,271,283,1,C, , , , ,space,1500,1.5,E,001,2021-08-17_17h19.27.206,natb3,2021.2.3,Win32,59.95203837,574c43d35e5491000f3c630f,6107d0959f7c4c3641818b95,611be1566dcf2514999d4d50,
,,,,space,0.485,,0,272,272,135,1,K, , , , ,space,1500,1.5,E,001,2021-08-17_17h19.27.206,natb3,2021.2.3,Win32,59.95203837,574c43d35e5491000f3c630f,6107d0959f7c4c3641818b95,611be1566dcf2514999d4d50,
,,,,,,,0,273,273,168,1,X, , , , ,,2500,2.5,E,001,2021-08-17_17h19.27.206,natb3,2021.2.3,Win32,59.95203837,574c43d35e5491000f3c630f,6107d0959f7c4c3641818b95,611be1566dcf2514999d4d50,
,,,,space,0.484,,0,274,274,297,1,U, , , , ,space,2000,2,E,001,2021-08-17_17h19.27.206,natb3,2021.2.3,Win32,59.95203837,574c43d35e5491000f3c630f,6107d0959f7c4c3641818b95,611be1566dcf2514999d4d50,
,,,,space,0.47,,0,275,275,186,1,U, , , , ,space,2500,2.5,E,001,2021-08-17_17h19.27.206,natb3,2021.2.3,Win32,59.95203837,574c43d35e5491000f3c630f,6107d0959f7c4c3641818b95,611be1566dcf2514999d4d50,
,,,,space,0.418,,0,276,276,250,1,V, , , , ,space,2000,2,E,001,2021-08-17_17h19.27.206,natb3,2021.2.3,Win32,59.95203837,574c43d35e5491000f3c630f,6107d0959f7c4c3641818b95,611be1566dcf2514999d4d50,
,,,,,,,0,277,277,31,1,X, , , , ,,1500,1.5,E,001,2021-08-17_17h19.27.206,natb3,2021.2.3,Win32,59.95203837,574c43d35e5491000f3c630f,6107d0959f7c4c3641818b95,611be1566dcf2514999d4d50,
,,,,,,,0,278,278,295,1,X,8,7,5, ,,2500,2.5,E,001,2021-08-17_17h19.27.206,natb3,2021.2.3,Win32,59.95203837,574c43d35e5491000f3c630f,6107d0959f7c4c3641818b95,611be1566dcf2514999d4d50,
,,,,space,0.779,,0,279,279,334,1,O, , , , ,space,1500,1.5,E,001,2021-08-17_17h19.27.206,natb3,2021.2.3,Win32,59.95203837,574c43d35e5491000f3c630f,6107d0959f7c4c3641818b95,611be1566dcf2514999d4d50,
,,,,space,0.417,,0,280,280,185,1,Y, , , , ,space,2500,2.5,E,001,2021-08-17_17h19.27.206,natb3,2021.2.3,Win32,59.95203837,574c43d35e5491000f3c630f,6107d0959f7c4c3641818b95,611be1566dcf2514999d4d50,
,,,,space,0.335,,0,281,281,140,1,B, , , , ,space,2500,2.5,E,001,2021-08-17_17h19.27.206,natb3,2021.2.3,Win32,59.95203837,574c43d35e5491000f3c630f,6107d0959f7c4c3641818b95,611be1566dcf2514999d4d50,
,,,,space,0.451,,0,282,282,123,1,O, , , , ,space,1500,1.5,E,001,2021-08-17_17h19.27.206,natb3,2021.2.3,Win32,59.95203837,574c43d35e5491000f3c630f,6107d0959f7c4c3641818b95,611be1566dcf2514999d4d50,
,,,,space,0.435,,0,283,283,61,1,C, , , , ,space,2000,2,E,001,2021-08-17_17h19.27.206,natb3,2021.2.3,Win32,59.95203837,574c43d35e5491000f3c630f,6107d0959f7c4c3641818b95,611be1566dcf2514999d4d50,
,,,,space,0.502,,0,284,284,90,1,K, , , , ,space,2000,2,E,001,2021-08-17_17h19.27.206,natb3,2021.2.3,Win32,59.95203837,574c43d35e5491000f3c630f,6107d0959f7c4c3641818b95,611be1566dcf2514999d4d50,
,,,,space,0.435,,0,285,285,115,1,R, , , , ,space,1500,1.5,E,001,2021-08-17_17h19.27.206,natb3,2021.2.3,Win32,59.95203837,574c43d35e5491000f3c630f,6107d0959f7c4c3641818b95,611be1566dcf2514999d4d50,
,,,,,,,0,286,286,236,1,X,3, ,4,7,,2500,2.5,E,001,2021-08-17_17h19.27.206,natb3,2021.2.3,Win32,59.95203837,574c43d35e5491000f3c630f,6107d0959f7c4c3641818b95,611be1566dcf2514999d4d50,
,,,,space,0.496,,0,287,287,49,1,S, , , , ,space,1500,1.5,E,001,2021-08-17_17h19.27.206,natb3,2021.2.3,Win32,59.95203837,574c43d35e5491000f3c630f,6107d0959f7c4c3641818b95,611be1566dcf2514999d4d50,
,,,,,,,0,288,288,27,1,X,5, ,1,3,,1500,1.5,E,001,2021-08-17_17h19.27.206,natb3,2021.2.3,Win32,59.95203837,574c43d35e5491000f3c630f,6107d0959f7c4c3641818b95,611be1566dcf2514999d4d50,
,,,,space,0.497,,0,289,289,222,1,O, , , , ,space,2000,2,E,001,2021-08-17_17h19.27.206,natb3,2021.2.3,Win32,59.95203837,574c43d35e5491000f3c630f,6107d0959f7c4c3641818b95,611be1566dcf2514999d4d50,
,,,,space,0.384,,0,290,290,116,1,X, , , , ,,2000,2,E,001,2021-08-17_17h19.27.206,natb3,2021.2.3,Win32,59.95203837,574c43d35e5491000f3c630f,6107d0959f7c4c3641818b95,611be1566dcf2514999d4d50,
,,,,space,0.367,,0,291,291,170,1,Z, , , , ,space,2000,2,E,001,2021-08-17_17h19.27.206,natb3,2021.2.3,Win32,59.95203837,574c43d35e5491000f3c630f,6107d0959f7c4c3641818b95,611be1566dcf2514999d4d50,
,,,,,,,0,292,292,145,1,X, , , , ,,2000,2,E,001,2021-08-17_17h19.27.206,natb3,2021.2.3,Win32,59.95203837,574c43d35e5491000f3c630f,6107d0959f7c4c3641818b95,611be1566dcf2514999d4d50,
,,,,space,0.295,,0,293,293,153,1,X,4,7, ,6,,2000,2,E,001,2021-08-17_17h19.27.206,natb3,2021.2.3,Win32,59.95203837,574c43d35e5491000f3c630f,6107d0959f7c4c3641818b95,611be1566dcf2514999d4d50,
,,,,,,,0,294,294,255,1,X, , , , ,,1500,1.5,E,001,2021-08-17_17h19.27.206,natb3,2021.2.3,Win32,59.95203837,574c43d35e5491000f3c630f,6107d0959f7c4c3641818b95,611be1566dcf2514999d4d50,
,,,,space,0.452,,0,295,295,327,1,E, , , , ,space,1500,1.5,E,001,2021-08-17_17h19.27.206,natb3,2021.2.3,Win32,59.95203837,574c43d35e5491000f3c630f,6107d0959f7c4c3641818b95,611be1566dcf2514999d4d50,
,,,,space,0.472,,0,296,296,68,1,W, , , , ,space,2500,2.5,E,001,2021-08-17_17h19.27.206,natb3,2021.2.3,Win32,59.95203837,574c43d35e5491000f3c630f,6107d0959f7c4c3641818b95,611be1566dcf2514999d4d50,
,,,,,,,0,297,297,335,1,P,,,,,space,1500,1.5,E,001,2021-08-17_17h19.27.206,natb3,2021.2.3,Win32,59.95203837,574c43d35e5491000f3c630f,6107d0959f7c4c3641818b95,611be1566dcf2514999d4d50,
,,,,space,0.407,,0,298,298,315,1,X, , , , ,,2500,2.5,E,001,2021-08-17_17h19.27.206,natb3,2021.2.3,Win32,59.95203837,574c43d35e5491000f3c630f,6107d0959f7c4c3641818b95,611be1566dcf2514999d4d50,
,,,,space,0.468,,0,299,299,217,1,T, , , , ,space,2500,2.5,E,001,2021-08-17_17h19.27.206,natb3,2021.2.3,Win32,59.95203837,574c43d35e5491000f3c630f,6107d0959f7c4c3641818b95,611be1566dcf2514999d4d50,
,,,,space,0.504,,0,300,300,180,1,W, , , , ,space,2000,2,E,001,2021-08-17_17h19.27.206,natb3,2021.2.3,Win32,59.95203837,574c43d35e5491000f3c630f,6107d0959f7c4c3641818b95,611be1566dcf2514999d4d50,
,,,,space,0.369,,0,301,301,5,1,T, , , , ,space,2000,2,E,001,2021-08-17_17h19.27.206,natb3,2021.2.3,Win32,59.95203837,574c43d35e5491000f3c630f,6107d0959f7c4c3641818b95,611be1566dcf2514999d4d50,
,,,,space,0.367,,0,302,302,9,1,I, , , , ,space,1500,1.5,E,001,2021-08-17_17h19.27.206,natb3,2021.2.3,Win32,59.95203837,574c43d35e5491000f3c630f,6107d0959f7c4c3641818b95,611be1566dcf2514999d4d50,
,,,,space,0.351,,0,303,303,210,1,M, , , , ,space,1500,1.5,E,001,2021-08-17_17h19.27.206,natb3,2021.2.3,Win32,59.95203837,574c43d35e5491000f3c630f,6107d0959f7c4c3641818b95,611be1566dcf2514999d4d50,
,,,,space,0.418,,0,304,304,32,1,M, , , , ,space,1500,1.5,E,001,2021-08-17_17h19.27.206,natb3,2021.2.3,Win32,59.95203837,574c43d35e5491000f3c630f,6107d0959f7c4c3641818b95,611be1566dcf2514999d4d50,
,,,,space,0.618,,0,305,305,121,1,I, , , , ,space,2000,2,E,001,2021-08-17_17h19.27.206,natb3,2021.2.3,Win32,59.95203837,574c43d35e5491000f3c630f,6107d0959f7c4c3641818b95,611be1566dcf2514999d4d50,
,,,,,,,0,306,306,195,1,X, , , , ,,1500,1.5,E,001,2021-08-17_17h19.27.206,natb3,2021.2.3,Win32,59.95203837,574c43d35e5491000f3c630f,6107d0959f7c4c3641818b95,611be1566dcf2514999d4d50,
,,,,space,0.454,,0,307,307,178,1,Q, , , , ,space,1500,1.5,E,001,2021-08-17_17h19.27.206,natb3,2021.2.3,Win32,59.95203837,574c43d35e5491000f3c630f,6107d0959f7c4c3641818b95,611be1566dcf2514999d4d50,
,,,,space,0.421,,0,308,308,303,1,A, , , , ,space,2000,2,E,001,2021-08-17_17h19.27.206,natb3,2021.2.3,Win32,59.95203837,574c43d35e5491000f3c630f,6107d0959f7c4c3641818b95,611be1566dcf2514999d4d50,
,,,,space,0.435,,0,309,309,87,1,H, , , , ,space,1500,1.5,E,001,2021-08-17_17h19.27.206,natb3,2021.2.3,Win32,59.95203837,574c43d35e5491000f3c630f,6107d0959f7c4c3641818b95,611be1566dcf2514999d4d50,
,,,,space,0.418,,0,310,310,26,1,C, , , , ,space,2000,2,E,001,2021-08-17_17h19.27.206,natb3,2021.2.3,Win32,59.95203837,574c43d35e5491000f3c630f,6107d0959f7c4c3641818b95,611be1566dcf2514999d4d50,
,,,,space,0.496,,0,311,311,8,1,U, , , , ,space,1500,1.5,E,001,2021-08-17_17h19.27.206,natb3,2021.2.3,Win32,59.95203837,574c43d35e5491000f3c630f,6107d0959f7c4c3641818b95,611be1566dcf2514999d4d50,
,,,,,,,0,312,312,74,1,X, ,4,3,2,,1500,1.5,E,001,2021-08-17_17h19.27.206,natb3,2021.2.3,Win32,59.95203837,574c43d35e5491000f3c630f,6107d0959f7c4c3641818b95,611be1566dcf2514999d4d50,
,,,,space,0.441,,0,313,313,99,1,N, , , , ,space,2500,2.5,E,001,2021-08-17_17h19.27.206,natb3,2021.2.3,Win32,59.95203837,574c43d35e5491000f3c630f,6107d0959f7c4c3641818b95,611be1566dcf2514999d4d50,
,,,,space,0.619,,0,314,314,63,1,B, , , , ,space,2000,2,E,001,2021-08-17_17h19.27.206,natb3,2021.2.3,Win32,59.95203837,574c43d35e5491000f3c630f,6107d0959f7c4c3641818b95,611be1566dcf2514999d4d50,
,,,,space,0.401,,0,315,315,117,1,T, , , , ,space,2500,2.5,E,001,2021-08-17_17h19.27.206,natb3,2021.2.3,Win32,59.95203837,574c43d35e5491000f3c630f,6107d0959f7c4c3641818b95,611be1566dcf2514999d4d50,
,,,,space,0.434,,0,316,316,296,1,Y, , , , ,space,2500,2.5,E,001,2021-08-17_17h19.27.206,natb3,2021.2.3,Win32,59.95203837,574c43d35e5491000f3c630f,6107d0959f7c4c3641818b95,611be1566dcf2514999d4d50,
,,,,space,0.336,,0,317,317,219,1,Y, , , , ,space,2000,2,E,001,2021-08-17_17h19.27.206,natb3,2021.2.3,Win32,59.95203837,574c43d35e5491000f3c630f,6107d0959f7c4c3641818b95,611be1566dcf2514999d4d50,
,,,,space,0.525,,0,318,318,171,1,X, , , , ,,1500,1.5,E,001,2021-08-17_17h19.27.206,natb3,2021.2.3,Win32,59.95203837,574c43d35e5491000f3c630f,6107d0959f7c4c3641818b95,611be1566dcf2514999d4d50,
,,,,,,,0,319,319,252,1,X,3, ,6,9,,2000,2,E,001,2021-08-17_17h19.27.206,natb3,2021.2.3,Win32,59.95203837,574c43d35e5491000f3c630f,6107d0959f7c4c3641818b95,611be1566dcf2514999d4d50,
,,,,space,0.479,,0,320,320,326,1,W, , , , ,space,2000,2,E,001,2021-08-17_17h19.27.206,natb3,2021.2.3,Win32,59.95203837,574c43d35e5491000f3c630f,6107d0959f7c4c3641818b95,611be1566dcf2514999d4d50,
,,,,,,,0,321,321,7,1,X, , , , ,,1500,1.5,E,001,2021-08-17_17h19.27.206,natb3,2021.2.3,Win32,59.95203837,574c43d35e5491000f3c630f,6107d0959f7c4c3641818b95,611be1566dcf2514999d4d50,
,,,,space,0.336,,0,322,322,130,1,F, , , , ,space,2000,2,E,001,2021-08-17_17h19.27.206,natb3,2021.2.3,Win32,59.95203837,574c43d35e5491000f3c630f,6107d0959f7c4c3641818b95,611be1566dcf2514999d4d50,
,,,,space,0.402,,0,323,323,139,1,V, , , , ,space,2000,2,E,001,2021-08-17_17h19.27.206,natb3,2021.2.3,Win32,59.95203837,574c43d35e5491000f3c630f,6107d0959f7c4c3641818b95,611be1566dcf2514999d4d50,
,,,,space,0.402,,0,324,324,83,1,D, , , , ,space,2000,2,E,001,2021-08-17_17h19.27.206,natb3,2021.2.3,Win32,59.95203837,574c43d35e5491000f3c630f,6107d0959f7c4c3641818b95,611be1566dcf2514999d4d50,
,,,,,,,0,325,325,35,1,X, , , , ,,2500,2.5,E,001,2021-08-17_17h19.27.206,natb3,2021.2.3,Win32,59.95203837,574c43d35e5491000f3c630f,6107d0959f7c4c3641818b95,611be1566dcf2514999d4d50,
,,,,space,0.384,,0,326,326,76,1,I, , , , ,space,2000,2,E,001,2021-08-17_17h19.27.206,natb3,2021.2.3,Win32,59.95203837,574c43d35e5491000f3c630f,6107d0959f7c4c3641818b95,611be1566dcf2514999d4d50,
,,,,,,,0,327,327,15,1,X, , , , ,,1500,1.5,E,001,2021-08-17_17h19.27.206,natb3,2021.2.3,Win32,59.95203837,574c43d35e5491000f3c630f,6107d0959f7c4c3641818b95,611be1566dcf2514999d4d50,
,,,,space,0.434,,0,328,328,79,1,P, , , , ,space,2000,2,E,001,2021-08-17_17h19.27.206,natb3,2021.2.3,Win32,59.95203837,574c43d35e5491000f3c630f,6107d0959f7c4c3641818b95,611be1566dcf2514999d4d50,
,,,,space,0.402,,0,329,329,143,1,M, , , , ,space,2500,2.5,E,001,2021-08-17_17h19.27.206,natb3,2021.2.3,Win32,59.95203837,574c43d35e5491000f3c630f,6107d0959f7c4c3641818b95,611be1566dcf2514999d4d50,
,,,,,,,0,330,330,158,1,X, , , , ,,1500,1.5,E,001,2021-08-17_17h19.27.206,natb3,2021.2.3,Win32,59.95203837,574c43d35e5491000f3c630f,6107d0959f7c4c3641818b95,611be1566dcf2514999d4d50,
,,,,space,0.428,,0,331,331,307,1,F, , , , ,space,2500,2.5,E,001,2021-08-17_17h19.27.206,natb3,2021.2.3,Win32,59.95203837,574c43d35e5491000f3c630f,6107d0959f7c4c3641818b95,611be1566dcf2514999d4d50,
,,,,space,0.369,,0,332,332,134,1,J, , , , ,space,2000,2,E,001,2021-08-17_17h19.27.206,natb3,2021.2.3,Win32,59.95203837,574c43d35e5491000f3c630f,6107d0959f7c4c3641818b95,611be1566dcf2514999d4d50,
,,,,space,0.418,,0,333,333,316,1,Z, , , , ,space,1500,1.5,E,001,2021-08-17_17h19.27.206,natb3,2021.2.3,Win32,59.95203837,574c43d35e5491000f3c630f,6107d0959f7c4c3641818b95,611be1566dcf2514999d4d50,
,,,,space,0.401,,0,334,334,154,1,I, , , , ,space,2500,2.5,E,001,2021-08-17_17h19.27.206,natb3,2021.2.3,Win32,59.95203837,574c43d35e5491000f3c630f,6107d0959f7c4c3641818b95,611be1566dcf2514999d4d50,
,,,,space,0.384,,0,335,335,124,1,P, , , , ,space,2000,2,E,001,2021-08-17_17h19.27.206,natb3,2021.2.3,Win32,59.95203837,574c43d35e5491000f3c630f,6107d0959f7c4c3641818b95,611be1566dcf2514999d4d50,
