key_resp_2.keys,key_resp_2.rt,key_resp_3.keys,key_resp_3.rt,key_resp.keys,key_resp.rt,key_resp_4.keys,trials.thisRepN,trials.thisTrialN,trials.thisN,trials.thisIndex,trials.ran,stimulus,distractor1,distractor2,distractor3,distractor4,CorrAns,isi_duration,isi_dur_in_seconds,participant,session,date,expName,psychopyVersion,OS,frameRate,PROLIFIC_PID,STUDY_ID,SESSION_ID,key_resp_4.rt
return,66.0271,space,20.1754,space,0.3724,,0,0,0,214,1,W, , , , ,space,2000,2,Elizabeth,001,2021-08-19_16h26.44.999,natb3,2021.2.3,Win32,60.0060006,60dfa3267e2f2d74059493ad,611e07ecdcc96256ae8d5b80,611e781c9d2973e37de6b33c,
,,,,space,0.2633,,0,1,1,236,1,X,3, ,4,7,,2500,2.5,Elizabeth,001,2021-08-19_16h26.44.999,natb3,2021.2.3,Win32,60.0060006,60dfa3267e2f2d74059493ad,611e07ecdcc96256ae8d5b80,611e781c9d2973e37de6b33c,
,,,,space,0.3992,,0,2,2,152,1,U, , , , ,space,2000,2,Elizabeth,001,2021-08-19_16h26.44.999,natb3,2021.2.3,Win32,60.0060006,60dfa3267e2f2d74059493ad,611e07ecdcc96256ae8d5b80,611e781c9d2973e37de6b33c,
,,,,space,0.4065,,0,3,3,37,1,E, , , , ,space,2500,2.5,Elizabeth,001,2021-08-19_16h26.44.999,natb3,2021.2.3,Win32,60.0060006,60dfa3267e2f2d74059493ad,611e07ecdcc96256ae8d5b80,611e781c9d2973e37de6b33c,
,,,,space,0.4003,,0,4,4,97,1,B, , , , ,space,2500,2.5,Elizabeth,001,2021-08-19_16h26.44.999,natb3,2021.2.3,Win32,60.0060006,60dfa3267e2f2d74059493ad,611e07ecdcc96256ae8d5b80,611e781c9d2973e37de6b33c,
,,,,,,,0,5,5,255,1,X, , , , ,,1500,1.5,Elizabeth,001,2021-08-19_16h26.44.999,natb3,2021.2.3,Win32,60.0060006,60dfa3267e2f2d74059493ad,611e07ecdcc96256ae8d5b80,611e781c9d2973e37de6b33c,
,,,,,,,0,6,6,129,1,X,2,3,5, ,,1500,1.5,Elizabeth,001,2021-08-19_16h26.44.999,natb3,2021.2.3,Win32,60.0060006,60dfa3267e2f2d74059493ad,611e07ecdcc96256ae8d5b80,611e781c9d2973e37de6b33c,
,,,,space,0.3486,,0,7,7,314,1,L, , , , ,space,1500,1.5,Elizabeth,001,2021-08-19_16h26.44.999,natb3,2021.2.3,Win32,60.0060006,60dfa3267e2f2d74059493ad,611e07ecdcc96256ae8d5b80,611e781c9d2973e37de6b33c,
,,,,space,0.4529,,0,8,8,223,1,Q, , , , ,space,2000,2,Elizabeth,001,2021-08-19_16h26.44.999,natb3,2021.2.3,Win32,60.0060006,60dfa3267e2f2d74059493ad,611e07ecdcc96256ae8d5b80,611e781c9d2973e37de6b33c,
,,,,space,0.3195,,0,9,9,315,1,X, , , , ,,2500,2.5,Elizabeth,001,2021-08-19_16h26.44.999,natb3,2021.2.3,Win32,60.0060006,60dfa3267e2f2d74059493ad,611e07ecdcc96256ae8d5b80,611e781c9d2973e37de6b33c,
,,,,space,0.4183,,0,10,10,95,1,V, , , , ,space,1500,1.5,Elizabeth,001,2021-08-19_16h26.44.999,natb3,2021.2.3,Win32,60.0060006,60dfa3267e2f2d74059493ad,611e07ecdcc96256ae8d5b80,611e781c9d2973e37de6b33c,
,,,,space,0.3219,,0,11,11,215,1,E, , , , ,space,2500,2.5,Elizabeth,001,2021-08-19_16h26.44.999,natb3,2021.2.3,Win32,60.0060006,60dfa3267e2f2d74059493ad,611e07ecdcc96256ae8d5b80,611e781c9d2973e37de6b33c,
,,,,space,0.4675,,0,12,12,178,1,Q, , , , ,space,1500,1.5,Elizabeth,001,2021-08-19_16h26.44.999,natb3,2021.2.3,Win32,60.0060006,60dfa3267e2f2d74059493ad,611e07ecdcc96256ae8d5b80,611e781c9d2973e37de6b33c,
,,,,space,0.4518,,0,13,13,209,1,N, , , , ,space,2000,2,Elizabeth,001,2021-08-19_16h26.44.999,natb3,2021.2.3,Win32,60.0060006,60dfa3267e2f2d74059493ad,611e07ecdcc96256ae8d5b80,611e781c9d2973e37de6b33c,
,,,,,,,0,14,14,46,1,X, , , , ,,2000,2,Elizabeth,001,2021-08-19_16h26.44.999,natb3,2021.2.3,Win32,60.0060006,60dfa3267e2f2d74059493ad,611e07ecdcc96256ae8d5b80,611e781c9d2973e37de6b33c,
,,,,space,0.5203,,0,15,15,99,1,N, , , , ,space,2500,2.5,Elizabeth,001,2021-08-19_16h26.44.999,natb3,2021.2.3,Win32,60.0060006,60dfa3267e2f2d74059493ad,611e07ecdcc96256ae8d5b80,611e781c9d2973e37de6b33c,
,,,,space,0.3668,,0,16,16,180,1,W, , , , ,space,2000,2,Elizabeth,001,2021-08-19_16h26.44.999,natb3,2021.2.3,Win32,60.0060006,60dfa3267e2f2d74059493ad,611e07ecdcc96256ae8d5b80,611e781c9d2973e37de6b33c,
,,,,space,0.3924,,0,17,17,275,1,G, , , , ,space,1500,1.5,Elizabeth,001,2021-08-19_16h26.44.999,natb3,2021.2.3,Win32,60.0060006,60dfa3267e2f2d74059493ad,611e07ecdcc96256ae8d5b80,611e781c9d2973e37de6b33c,
,,,,space,0.3768,,0,18,18,176,1,N, , , , ,space,1500,1.5,Elizabeth,001,2021-08-19_16h26.44.999,natb3,2021.2.3,Win32,60.0060006,60dfa3267e2f2d74059493ad,611e07ecdcc96256ae8d5b80,611e781c9d2973e37de6b33c,
,,,,,,,0,19,19,162,1,X,1,6, ,2,,1500,1.5,Elizabeth,001,2021-08-19_16h26.44.999,natb3,2021.2.3,Win32,60.0060006,60dfa3267e2f2d74059493ad,611e07ecdcc96256ae8d5b80,611e781c9d2973e37de6b33c,
,,,,space,0.3311,,0,20,20,160,1,D, , , , ,space,1500,1.5,Elizabeth,001,2021-08-19_16h26.44.999,natb3,2021.2.3,Win32,60.0060006,60dfa3267e2f2d74059493ad,611e07ecdcc96256ae8d5b80,611e781c9d2973e37de6b33c,
,,,,space,0.3745,,0,21,21,30,1,N, , , , ,space,2500,2.5,Elizabeth,001,2021-08-19_16h26.44.999,natb3,2021.2.3,Win32,60.0060006,60dfa3267e2f2d74059493ad,611e07ecdcc96256ae8d5b80,611e781c9d2973e37de6b33c,
,,,,space,0.3871,,0,22,22,139,1,V, , , , ,space,2000,2,Elizabeth,001,2021-08-19_16h26.44.999,natb3,2021.2.3,Win32,60.0060006,60dfa3267e2f2d74059493ad,611e07ecdcc96256ae8d5b80,611e781c9d2973e37de6b33c,
,,,,space,0.4704,,0,23,23,1,1,W, , , , ,space,2000,2,Elizabeth,001,2021-08-19_16h26.44.999,natb3,2021.2.3,Win32,60.0060006,60dfa3267e2f2d74059493ad,611e07ecdcc96256ae8d5b80,611e781c9d2973e37de6b33c,
,,,,space,0.385,,0,24,24,185,1,Y, , , , ,space,2500,2.5,Elizabeth,001,2021-08-19_16h26.44.999,natb3,2021.2.3,Win32,60.0060006,60dfa3267e2f2d74059493ad,611e07ecdcc96256ae8d5b80,611e781c9d2973e37de6b33c,
,,,,space,0.3721,,0,25,25,38,1,R, , , , ,space,2500,2.5,Elizabeth,001,2021-08-19_16h26.44.999,natb3,2021.2.3,Win32,60.0060006,60dfa3267e2f2d74059493ad,611e07ecdcc96256ae8d5b80,611e781c9d2973e37de6b33c,
,,,,space,0.4553,,0,26,26,124,1,P, , , , ,space,2000,2,Elizabeth,001,2021-08-19_16h26.44.999,natb3,2021.2.3,Win32,60.0060006,60dfa3267e2f2d74059493ad,611e07ecdcc96256ae8d5b80,611e781c9d2973e37de6b33c,
,,,,,,,0,27,27,302,1,X, , , , ,,2000,2,Elizabeth,001,2021-08-19_16h26.44.999,natb3,2021.2.3,Win32,60.0060006,60dfa3267e2f2d74059493ad,611e07ecdcc96256ae8d5b80,611e781c9d2973e37de6b33c,
,,,,space,0.4109,,0,28,28,121,1,I, , , , ,space,2000,2,Elizabeth,001,2021-08-19_16h26.44.999,natb3,2021.2.3,Win32,60.0060006,60dfa3267e2f2d74059493ad,611e07ecdcc96256ae8d5b80,611e781c9d2973e37de6b33c,
,,,,space,0.4767,,0,29,29,22,1,K, , , , ,space,2000,2,Elizabeth,001,2021-08-19_16h26.44.999,natb3,2021.2.3,Win32,60.0060006,60dfa3267e2f2d74059493ad,611e07ecdcc96256ae8d5b80,611e781c9d2973e37de6b33c,
,,,,space,0.37,,0,30,30,174,1,B, , , , ,space,2500,2.5,Elizabeth,001,2021-08-19_16h26.44.999,natb3,2021.2.3,Win32,60.0060006,60dfa3267e2f2d74059493ad,611e07ecdcc96256ae8d5b80,611e781c9d2973e37de6b33c,
,,,,space,0.3761,,0,31,31,140,1,B, , , , ,space,2500,2.5,Elizabeth,001,2021-08-19_16h26.44.999,natb3,2021.2.3,Win32,60.0060006,60dfa3267e2f2d74059493ad,611e07ecdcc96256ae8d5b80,611e781c9d2973e37de6b33c,
,,,,space,0.4041,,0,32,32,254,1,M, , , , ,space,1500,1.5,Elizabeth,001,2021-08-19_16h26.44.999,natb3,2021.2.3,Win32,60.0060006,60dfa3267e2f2d74059493ad,611e07ecdcc96256ae8d5b80,611e781c9d2973e37de6b33c,
,,,,space,0.3846,,0,33,33,267,1,P, , , , ,space,2000,2,Elizabeth,001,2021-08-19_16h26.44.999,natb3,2021.2.3,Win32,60.0060006,60dfa3267e2f2d74059493ad,611e07ecdcc96256ae8d5b80,611e781c9d2973e37de6b33c,
,,,,space,0.4171,,0,34,34,24,1,L, , , , ,space,2500,2.5,Elizabeth,001,2021-08-19_16h26.44.999,natb3,2021.2.3,Win32,60.0060006,60dfa3267e2f2d74059493ad,611e07ecdcc96256ae8d5b80,611e781c9d2973e37de6b33c,
,,,,space,0.4099,,0,35,35,184,1,T, , , , ,space,2000,2,Elizabeth,001,2021-08-19_16h26.44.999,natb3,2021.2.3,Win32,60.0060006,60dfa3267e2f2d74059493ad,611e07ecdcc96256ae8d5b80,611e781c9d2973e37de6b33c,
,,,,space,0.3495,,0,36,36,317,1,C, , , , ,space,2000,2,Elizabeth,001,2021-08-19_16h26.44.999,natb3,2021.2.3,Win32,60.0060006,60dfa3267e2f2d74059493ad,611e07ecdcc96256ae8d5b80,611e781c9d2973e37de6b33c,
,,,,space,0.4314,,0,37,37,246,1,L, , , , ,space,2500,2.5,Elizabeth,001,2021-08-19_16h26.44.999,natb3,2021.2.3,Win32,60.0060006,60dfa3267e2f2d74059493ad,611e07ecdcc96256ae8d5b80,611e781c9d2973e37de6b33c,
,,,,space,0.374,,0,38,38,278,1,J, , , , ,space,2000,2,Elizabeth,001,2021-08-19_16h26.44.999,natb3,2021.2.3,Win32,60.0060006,60dfa3267e2f2d74059493ad,611e07ecdcc96256ae8d5b80,611e781c9d2973e37de6b33c,
,,,,space,0.6401,,0,39,39,298,1,I, , , , ,space,2000,2,Elizabeth,001,2021-08-19_16h26.44.999,natb3,2021.2.3,Win32,60.0060006,60dfa3267e2f2d74059493ad,611e07ecdcc96256ae8d5b80,611e781c9d2973e37de6b33c,
,,,,,,,0,40,40,203,1,X, , , , ,,2500,2.5,Elizabeth,001,2021-08-19_16h26.44.999,natb3,2021.2.3,Win32,60.0060006,60dfa3267e2f2d74059493ad,611e07ecdcc96256ae8d5b80,611e781c9d2973e37de6b33c,
,,,,space,0.4369,,0,41,41,281,1,Z, , , , ,space,1500,1.5,Elizabeth,001,2021-08-19_16h26.44.999,natb3,2021.2.3,Win32,60.0060006,60dfa3267e2f2d74059493ad,611e07ecdcc96256ae8d5b80,611e781c9d2973e37de6b33c,
,,,,space,0.3828,,0,42,42,143,1,M, , , , ,space,2500,2.5,Elizabeth,001,2021-08-19_16h26.44.999,natb3,2021.2.3,Win32,60.0060006,60dfa3267e2f2d74059493ad,611e07ecdcc96256ae8d5b80,611e781c9d2973e37de6b33c,
,,,,space,0.3935,,0,43,43,75,1,U, , , , ,space,1500,1.5,Elizabeth,001,2021-08-19_16h26.44.999,natb3,2021.2.3,Win32,60.0060006,60dfa3267e2f2d74059493ad,611e07ecdcc96256ae8d5b80,611e781c9d2973e37de6b33c,
,,,,space,0.5495,,0,44,44,76,1,I, , , , ,space,2000,2,Elizabeth,001,2021-08-19_16h26.44.999,natb3,2021.2.3,Win32,60.0060006,60dfa3267e2f2d74059493ad,611e07ecdcc96256ae8d5b80,611e781c9d2973e37de6b33c,
,,,,space,0.3827,,0,45,45,21,1,J, , , , ,space,1500,1.5,Elizabeth,001,2021-08-19_16h26.44.999,natb3,2021.2.3,Win32,60.0060006,60dfa3267e2f2d74059493ad,611e07ecdcc96256ae8d5b80,611e781c9d2973e37de6b33c,
,,,,space,0.4283,,0,46,46,228,1,Y, , , , ,space,2000,2,Elizabeth,001,2021-08-19_16h26.44.999,natb3,2021.2.3,Win32,60.0060006,60dfa3267e2f2d74059493ad,611e07ecdcc96256ae8d5b80,611e781c9d2973e37de6b33c,
,,,,,,,0,47,47,116,1,X, , , , ,,2000,2,Elizabeth,001,2021-08-19_16h26.44.999,natb3,2021.2.3,Win32,60.0060006,60dfa3267e2f2d74059493ad,611e07ecdcc96256ae8d5b80,611e781c9d2973e37de6b33c,
,,,,space,0.459,,0,48,48,40,1,T, , , , ,space,1500,1.5,Elizabeth,001,2021-08-19_16h26.44.999,natb3,2021.2.3,Win32,60.0060006,60dfa3267e2f2d74059493ad,611e07ecdcc96256ae8d5b80,611e781c9d2973e37de6b33c,
,,,,,,,0,49,49,18,1,X, ,2,5,8,,2500,2.5,Elizabeth,001,2021-08-19_16h26.44.999,natb3,2021.2.3,Win32,60.0060006,60dfa3267e2f2d74059493ad,611e07ecdcc96256ae8d5b80,611e781c9d2973e37de6b33c,
,,,,space,0.3773,,0,50,50,47,1,P, , , , ,space,2000,2,Elizabeth,001,2021-08-19_16h26.44.999,natb3,2021.2.3,Win32,60.0060006,60dfa3267e2f2d74059493ad,611e07ecdcc96256ae8d5b80,611e781c9d2973e37de6b33c,
,,,,space,0.3704,,0,51,51,169,1,L, , , , ,space,2500,2.5,Elizabeth,001,2021-08-19_16h26.44.999,natb3,2021.2.3,Win32,60.0060006,60dfa3267e2f2d74059493ad,611e07ecdcc96256ae8d5b80,611e781c9d2973e37de6b33c,
,,,,space,0.5175,,0,52,52,73,1,Y, , , , ,space,2000,2,Elizabeth,001,2021-08-19_16h26.44.999,natb3,2021.2.3,Win32,60.0060006,60dfa3267e2f2d74059493ad,611e07ecdcc96256ae8d5b80,611e781c9d2973e37de6b33c,
,,,,,,,0,53,53,182,1,X, , , , ,,1500,1.5,Elizabeth,001,2021-08-19_16h26.44.999,natb3,2021.2.3,Win32,60.0060006,60dfa3267e2f2d74059493ad,611e07ecdcc96256ae8d5b80,611e781c9d2973e37de6b33c,
,,,,space,0.4609,,0,54,54,49,1,S, , , , ,space,1500,1.5,Elizabeth,001,2021-08-19_16h26.44.999,natb3,2021.2.3,Win32,60.0060006,60dfa3267e2f2d74059493ad,611e07ecdcc96256ae8d5b80,611e781c9d2973e37de6b33c,
,,,,space,0.4679,,0,55,55,127,1,S, , , , ,space,2500,2.5,Elizabeth,001,2021-08-19_16h26.44.999,natb3,2021.2.3,Win32,60.0060006,60dfa3267e2f2d74059493ad,611e07ecdcc96256ae8d5b80,611e781c9d2973e37de6b33c,
,,,,space,0.4743,,0,56,56,0,1,Q, , , , ,space,1500,1.5,Elizabeth,001,2021-08-19_16h26.44.999,natb3,2021.2.3,Win32,60.0060006,60dfa3267e2f2d74059493ad,611e07ecdcc96256ae8d5b80,611e781c9d2973e37de6b33c,
,,,,,,,0,57,57,35,1,X, , , , ,,2500,2.5,Elizabeth,001,2021-08-19_16h26.44.999,natb3,2021.2.3,Win32,60.0060006,60dfa3267e2f2d74059493ad,611e07ecdcc96256ae8d5b80,611e781c9d2973e37de6b33c,
,,,,space,0.4514,,0,58,58,100,1,M, , , , ,space,2000,2,Elizabeth,001,2021-08-19_16h26.44.999,natb3,2021.2.3,Win32,60.0060006,60dfa3267e2f2d74059493ad,611e07ecdcc96256ae8d5b80,611e781c9d2973e37de6b33c,
,,,,space,0.5175,,0,59,59,111,1,O, , , , ,space,2000,2,Elizabeth,001,2021-08-19_16h26.44.999,natb3,2021.2.3,Win32,60.0060006,60dfa3267e2f2d74059493ad,611e07ecdcc96256ae8d5b80,611e781c9d2973e37de6b33c,
,,,,space,0.4393,,0,60,60,155,1,O, , , , ,space,1500,1.5,Elizabeth,001,2021-08-19_16h26.44.999,natb3,2021.2.3,Win32,60.0060006,60dfa3267e2f2d74059493ad,611e07ecdcc96256ae8d5b80,611e781c9d2973e37de6b33c,
,,,,space,0.357,,0,61,61,20,1,H, , , , ,space,1500,1.5,Elizabeth,001,2021-08-19_16h26.44.999,natb3,2021.2.3,Win32,60.0060006,60dfa3267e2f2d74059493ad,611e07ecdcc96256ae8d5b80,611e781c9d2973e37de6b33c,
,,,,space,0.3587,,0,62,62,144,1,Q, , , , ,space,2500,2.5,Elizabeth,001,2021-08-19_16h26.44.999,natb3,2021.2.3,Win32,60.0060006,60dfa3267e2f2d74059493ad,611e07ecdcc96256ae8d5b80,611e781c9d2973e37de6b33c,
,,,,space,0.3849,,0,63,63,183,1,R, , , , ,space,1500,1.5,Elizabeth,001,2021-08-19_16h26.44.999,natb3,2021.2.3,Win32,60.0060006,60dfa3267e2f2d74059493ad,611e07ecdcc96256ae8d5b80,611e781c9d2973e37de6b33c,
,,,,space,0.3848,,0,64,64,63,1,B, , , , ,space,2000,2,Elizabeth,001,2021-08-19_16h26.44.999,natb3,2021.2.3,Win32,60.0060006,60dfa3267e2f2d74059493ad,611e07ecdcc96256ae8d5b80,611e781c9d2973e37de6b33c,
,,,,space,0.5351,,0,65,65,201,1,K, , , , ,space,1500,1.5,Elizabeth,001,2021-08-19_16h26.44.999,natb3,2021.2.3,Win32,60.0060006,60dfa3267e2f2d74059493ad,611e07ecdcc96256ae8d5b80,611e781c9d2973e37de6b33c,
,,,,space,0.3875,,0,66,66,190,1,P, , , , ,space,2000,2,Elizabeth,001,2021-08-19_16h26.44.999,natb3,2021.2.3,Win32,60.0060006,60dfa3267e2f2d74059493ad,611e07ecdcc96256ae8d5b80,611e781c9d2973e37de6b33c,
,,,,,,,0,67,67,96,1,X, , , , ,,1500,1.5,Elizabeth,001,2021-08-19_16h26.44.999,natb3,2021.2.3,Win32,60.0060006,60dfa3267e2f2d74059493ad,611e07ecdcc96256ae8d5b80,611e781c9d2973e37de6b33c,
,,,,space,0.3949,,0,68,68,167,1,K, , , , ,space,1500,1.5,Elizabeth,001,2021-08-19_16h26.44.999,natb3,2021.2.3,Win32,60.0060006,60dfa3267e2f2d74059493ad,611e07ecdcc96256ae8d5b80,611e781c9d2973e37de6b33c,
,,,,space,0.3581,,0,69,69,71,1,R, , , , ,space,2500,2.5,Elizabeth,001,2021-08-19_16h26.44.999,natb3,2021.2.3,Win32,60.0060006,60dfa3267e2f2d74059493ad,611e07ecdcc96256ae8d5b80,611e781c9d2973e37de6b33c,
,,,,space,0.5766,,0,70,70,128,1,D, , , , ,space,2500,2.5,Elizabeth,001,2021-08-19_16h26.44.999,natb3,2021.2.3,Win32,60.0060006,60dfa3267e2f2d74059493ad,611e07ecdcc96256ae8d5b80,611e781c9d2973e37de6b33c,
,,,,space,0.4005,,0,71,71,2,1,E, , , , ,space,2500,2.5,Elizabeth,001,2021-08-19_16h26.44.999,natb3,2021.2.3,Win32,60.0060006,60dfa3267e2f2d74059493ad,611e07ecdcc96256ae8d5b80,611e781c9d2973e37de6b33c,
,,,,,,,0,72,72,125,1,X, , , , ,,2000,2,Elizabeth,001,2021-08-19_16h26.44.999,natb3,2021.2.3,Win32,60.0060006,60dfa3267e2f2d74059493ad,611e07ecdcc96256ae8d5b80,611e781c9d2973e37de6b33c,
,,,,,,,0,73,73,195,1,X, , , , ,,1500,1.5,Elizabeth,001,2021-08-19_16h26.44.999,natb3,2021.2.3,Win32,60.0060006,60dfa3267e2f2d74059493ad,611e07ecdcc96256ae8d5b80,611e781c9d2973e37de6b33c,
,,,,space,0.5112,,0,74,74,256,1,Q, , , , ,space,2000,2,Elizabeth,001,2021-08-19_16h26.44.999,natb3,2021.2.3,Win32,60.0060006,60dfa3267e2f2d74059493ad,611e07ecdcc96256ae8d5b80,611e781c9d2973e37de6b33c,
,,,,space,0.5119,,0,75,75,112,1,Q, , , , ,space,2500,2.5,Elizabeth,001,2021-08-19_16h26.44.999,natb3,2021.2.3,Win32,60.0060006,60dfa3267e2f2d74059493ad,611e07ecdcc96256ae8d5b80,611e781c9d2973e37de6b33c,
,,,,space,0.4338,,0,76,76,326,1,W, , , , ,space,2000,2,Elizabeth,001,2021-08-19_16h26.44.999,natb3,2021.2.3,Win32,60.0060006,60dfa3267e2f2d74059493ad,611e07ecdcc96256ae8d5b80,611e781c9d2973e37de6b33c,
,,,,space,0.3589,,0,77,77,132,1,H, , , , ,space,2500,2.5,Elizabeth,001,2021-08-19_16h26.44.999,natb3,2021.2.3,Win32,60.0060006,60dfa3267e2f2d74059493ad,611e07ecdcc96256ae8d5b80,611e781c9d2973e37de6b33c,
,,,,space,0.4934,,0,78,78,225,1,E, , , , ,space,2000,2,Elizabeth,001,2021-08-19_16h26.44.999,natb3,2021.2.3,Win32,60.0060006,60dfa3267e2f2d74059493ad,611e07ecdcc96256ae8d5b80,611e781c9d2973e37de6b33c,
,,,,space,0.3841,,0,79,79,157,1,A, , , , ,space,2500,2.5,Elizabeth,001,2021-08-19_16h26.44.999,natb3,2021.2.3,Win32,60.0060006,60dfa3267e2f2d74059493ad,611e07ecdcc96256ae8d5b80,611e781c9d2973e37de6b33c,
,,,,space,0.4843,,0,80,80,196,1,F, , , , ,space,1500,1.5,Elizabeth,001,2021-08-19_16h26.44.999,natb3,2021.2.3,Win32,60.0060006,60dfa3267e2f2d74059493ad,611e07ecdcc96256ae8d5b80,611e781c9d2973e37de6b33c,
,,,,space,0.4241,,0,81,81,186,1,U, , , , ,space,2500,2.5,Elizabeth,001,2021-08-19_16h26.44.999,natb3,2021.2.3,Win32,60.0060006,60dfa3267e2f2d74059493ad,611e07ecdcc96256ae8d5b80,611e781c9d2973e37de6b33c,
,,,,space,0.4671,,0,82,82,297,1,U, , , , ,space,2000,2,Elizabeth,001,2021-08-19_16h26.44.999,natb3,2021.2.3,Win32,60.0060006,60dfa3267e2f2d74059493ad,611e07ecdcc96256ae8d5b80,611e781c9d2973e37de6b33c,
,,,,space,0.47,,0,83,83,324,1,Q, , , , ,space,2000,2,Elizabeth,001,2021-08-19_16h26.44.999,natb3,2021.2.3,Win32,60.0060006,60dfa3267e2f2d74059493ad,611e07ecdcc96256ae8d5b80,611e781c9d2973e37de6b33c,
,,,,space,0.4183,,0,84,84,85,1,F, , , , ,space,2500,2.5,Elizabeth,001,2021-08-19_16h26.44.999,natb3,2021.2.3,Win32,60.0060006,60dfa3267e2f2d74059493ad,611e07ecdcc96256ae8d5b80,611e781c9d2973e37de6b33c,
,,,,space,0.3707,,0,85,85,333,1,I, , , , ,space,1500,1.5,Elizabeth,001,2021-08-19_16h26.44.999,natb3,2021.2.3,Win32,60.0060006,60dfa3267e2f2d74059493ad,611e07ecdcc96256ae8d5b80,611e781c9d2973e37de6b33c,
,,,,,,,0,86,86,318,1,X, , , , ,,1500,1.5,Elizabeth,001,2021-08-19_16h26.44.999,natb3,2021.2.3,Win32,60.0060006,60dfa3267e2f2d74059493ad,611e07ecdcc96256ae8d5b80,611e781c9d2973e37de6b33c,
,,,,space,0.402,,0,87,87,5,1,T, , , , ,space,2000,2,Elizabeth,001,2021-08-19_16h26.44.999,natb3,2021.2.3,Win32,60.0060006,60dfa3267e2f2d74059493ad,611e07ecdcc96256ae8d5b80,611e781c9d2973e37de6b33c,
,,,,space,0.4957,,0,88,88,104,1,E, , , , ,space,2000,2,Elizabeth,001,2021-08-19_16h26.44.999,natb3,2021.2.3,Win32,60.0060006,60dfa3267e2f2d74059493ad,611e07ecdcc96256ae8d5b80,611e781c9d2973e37de6b33c,
,,,,space,0.3679,,0,89,89,159,1,S, , , , ,space,2500,2.5,Elizabeth,001,2021-08-19_16h26.44.999,natb3,2021.2.3,Win32,60.0060006,60dfa3267e2f2d74059493ad,611e07ecdcc96256ae8d5b80,611e781c9d2973e37de6b33c,
,,,,space,0.4845,,0,90,90,245,1,K, , , , ,space,2000,2,Elizabeth,001,2021-08-19_16h26.44.999,natb3,2021.2.3,Win32,60.0060006,60dfa3267e2f2d74059493ad,611e07ecdcc96256ae8d5b80,611e781c9d2973e37de6b33c,
,,,,space,0.4435,,0,91,91,197,1,G, , , , ,space,2500,2.5,Elizabeth,001,2021-08-19_16h26.44.999,natb3,2021.2.3,Win32,60.0060006,60dfa3267e2f2d74059493ad,611e07ecdcc96256ae8d5b80,611e781c9d2973e37de6b33c,
,,,,space,0.5327,,0,92,92,165,1,J, , , , ,space,2500,2.5,Elizabeth,001,2021-08-19_16h26.44.999,natb3,2021.2.3,Win32,60.0060006,60dfa3267e2f2d74059493ad,611e07ecdcc96256ae8d5b80,611e781c9d2973e37de6b33c,
,,,,space,0.5203,,0,93,93,220,1,U, , , , ,space,2500,2.5,Elizabeth,001,2021-08-19_16h26.44.999,natb3,2021.2.3,Win32,60.0060006,60dfa3267e2f2d74059493ad,611e07ecdcc96256ae8d5b80,611e781c9d2973e37de6b33c,
,,,,space,0.37,,0,94,94,234,1,P, , , , ,space,2000,2,Elizabeth,001,2021-08-19_16h26.44.999,natb3,2021.2.3,Win32,60.0060006,60dfa3267e2f2d74059493ad,611e07ecdcc96256ae8d5b80,611e781c9d2973e37de6b33c,
,,,,space,0.3733,,0,95,95,262,1,Y, , , , ,space,2500,2.5,Elizabeth,001,2021-08-19_16h26.44.999,natb3,2021.2.3,Win32,60.0060006,60dfa3267e2f2d74059493ad,611e07ecdcc96256ae8d5b80,611e781c9d2973e37de6b33c,
,,,,space,0.4058,,0,96,96,130,1,F, , , , ,space,2000,2,Elizabeth,001,2021-08-19_16h26.44.999,natb3,2021.2.3,Win32,60.0060006,60dfa3267e2f2d74059493ad,611e07ecdcc96256ae8d5b80,611e781c9d2973e37de6b33c,
,,,,space,0.3756,,0,97,97,323,1,M, , , , ,space,2500,2.5,Elizabeth,001,2021-08-19_16h26.44.999,natb3,2021.2.3,Win32,60.0060006,60dfa3267e2f2d74059493ad,611e07ecdcc96256ae8d5b80,611e781c9d2973e37de6b33c,
,,,,,,,0,98,98,191,1,X,1, ,3,4,,2500,2.5,Elizabeth,001,2021-08-19_16h26.44.999,natb3,2021.2.3,Win32,60.0060006,60dfa3267e2f2d74059493ad,611e07ecdcc96256ae8d5b80,611e781c9d2973e37de6b33c,
,,,,,,,0,99,99,305,1,X, , , , ,,1500,1.5,Elizabeth,001,2021-08-19_16h26.44.999,natb3,2021.2.3,Win32,60.0060006,60dfa3267e2f2d74059493ad,611e07ecdcc96256ae8d5b80,611e781c9d2973e37de6b33c,
,,,,space,0.3946,,0,100,100,53,1,G, , , , ,space,2500,2.5,Elizabeth,001,2021-08-19_16h26.44.999,natb3,2021.2.3,Win32,60.0060006,60dfa3267e2f2d74059493ad,611e07ecdcc96256ae8d5b80,611e781c9d2973e37de6b33c,
,,,,space,0.4837,,0,101,101,270,1,S, , , , ,space,1500,1.5,Elizabeth,001,2021-08-19_16h26.44.999,natb3,2021.2.3,Win32,60.0060006,60dfa3267e2f2d74059493ad,611e07ecdcc96256ae8d5b80,611e781c9d2973e37de6b33c,
,,,,,,,0,102,102,239,1,X, , , , ,,2000,2,Elizabeth,001,2021-08-19_16h26.44.999,natb3,2021.2.3,Win32,60.0060006,60dfa3267e2f2d74059493ad,611e07ecdcc96256ae8d5b80,611e781c9d2973e37de6b33c,
,,,,space,0.5326,,0,103,103,205,1,C, , , , ,space,2000,2,Elizabeth,001,2021-08-19_16h26.44.999,natb3,2021.2.3,Win32,60.0060006,60dfa3267e2f2d74059493ad,611e07ecdcc96256ae8d5b80,611e781c9d2973e37de6b33c,
,,,,,,,0,104,104,213,1,X, , , , ,,2500,2.5,Elizabeth,001,2021-08-19_16h26.44.999,natb3,2021.2.3,Win32,60.0060006,60dfa3267e2f2d74059493ad,611e07ecdcc96256ae8d5b80,611e781c9d2973e37de6b33c,
,,,,space,0.5036,,0,105,105,113,1,W, , , , ,space,2500,2.5,Elizabeth,001,2021-08-19_16h26.44.999,natb3,2021.2.3,Win32,60.0060006,60dfa3267e2f2d74059493ad,611e07ecdcc96256ae8d5b80,611e781c9d2973e37de6b33c,
,,,,,,,0,106,106,268,1,X,6, ,3, ,,2500,2.5,Elizabeth,001,2021-08-19_16h26.44.999,natb3,2021.2.3,Win32,60.0060006,60dfa3267e2f2d74059493ad,611e07ecdcc96256ae8d5b80,611e781c9d2973e37de6b33c,
,,,,space,0.3678,,0,107,107,70,1,E, , , , ,space,2500,2.5,Elizabeth,001,2021-08-19_16h26.44.999,natb3,2021.2.3,Win32,60.0060006,60dfa3267e2f2d74059493ad,611e07ecdcc96256ae8d5b80,611e781c9d2973e37de6b33c,
,,,,space,0.4668,,0,108,108,307,1,F, , , , ,space,2500,2.5,Elizabeth,001,2021-08-19_16h26.44.999,natb3,2021.2.3,Win32,60.0060006,60dfa3267e2f2d74059493ad,611e07ecdcc96256ae8d5b80,611e781c9d2973e37de6b33c,
,,,,space,0.7109,,0,109,109,250,1,V, , , , ,space,2000,2,Elizabeth,001,2021-08-19_16h26.44.999,natb3,2021.2.3,Win32,60.0060006,60dfa3267e2f2d74059493ad,611e07ecdcc96256ae8d5b80,611e781c9d2973e37de6b33c,
,,,,space,0.5204,,0,110,110,80,1,A, , , , ,space,2000,2,Elizabeth,001,2021-08-19_16h26.44.999,natb3,2021.2.3,Win32,60.0060006,60dfa3267e2f2d74059493ad,611e07ecdcc96256ae8d5b80,611e781c9d2973e37de6b33c,
,,,,space,0.3456,,0,111,111,67,1,Q, , , , ,space,2000,2,Elizabeth,001,2021-08-19_16h26.44.999,natb3,2021.2.3,Win32,60.0060006,60dfa3267e2f2d74059493ad,611e07ecdcc96256ae8d5b80,611e781c9d2973e37de6b33c,
,,,,space,0.4294,,0,112,112,319,1,V, , , , ,space,2000,2,Elizabeth,001,2021-08-19_16h26.44.999,natb3,2021.2.3,Win32,60.0060006,60dfa3267e2f2d74059493ad,611e07ecdcc96256ae8d5b80,611e781c9d2973e37de6b33c,
,,,,space,0.4665,,0,113,113,334,1,O, , , , ,space,1500,1.5,Elizabeth,001,2021-08-19_16h26.44.999,natb3,2021.2.3,Win32,60.0060006,60dfa3267e2f2d74059493ad,611e07ecdcc96256ae8d5b80,611e781c9d2973e37de6b33c,
,,,,space,0.5336,,0,114,114,117,1,T, , , , ,space,2500,2.5,Elizabeth,001,2021-08-19_16h26.44.999,natb3,2021.2.3,Win32,60.0060006,60dfa3267e2f2d74059493ad,611e07ecdcc96256ae8d5b80,611e781c9d2973e37de6b33c,
,,,,space,0.4018,,0,115,115,219,1,Y, , , , ,space,2000,2,Elizabeth,001,2021-08-19_16h26.44.999,natb3,2021.2.3,Win32,60.0060006,60dfa3267e2f2d74059493ad,611e07ecdcc96256ae8d5b80,611e781c9d2973e37de6b33c,
,,,,space,0.3777,,0,116,116,249,1,C, , , , ,space,2000,2,Elizabeth,001,2021-08-19_16h26.44.999,natb3,2021.2.3,Win32,60.0060006,60dfa3267e2f2d74059493ad,611e07ecdcc96256ae8d5b80,611e781c9d2973e37de6b33c,
,,,,,,,0,117,117,248,1,X, ,1,5, ,,1500,1.5,Elizabeth,001,2021-08-19_16h26.44.999,natb3,2021.2.3,Win32,60.0060006,60dfa3267e2f2d74059493ad,611e07ecdcc96256ae8d5b80,611e781c9d2973e37de6b33c,
,,,,space,0.3409,,0,118,118,282,1,X, , , , ,,2500,2.5,Elizabeth,001,2021-08-19_16h26.44.999,natb3,2021.2.3,Win32,60.0060006,60dfa3267e2f2d74059493ad,611e07ecdcc96256ae8d5b80,611e781c9d2973e37de6b33c,
,,,,space,0.5205,,0,119,119,264,1,U, , , , ,space,2000,2,Elizabeth,001,2021-08-19_16h26.44.999,natb3,2021.2.3,Win32,60.0060006,60dfa3267e2f2d74059493ad,611e07ecdcc96256ae8d5b80,611e781c9d2973e37de6b33c,
,,,,,,,0,120,120,233,1,X, ,2, ,5,,1500,1.5,Elizabeth,001,2021-08-19_16h26.44.999,natb3,2021.2.3,Win32,60.0060006,60dfa3267e2f2d74059493ad,611e07ecdcc96256ae8d5b80,611e781c9d2973e37de6b33c,
,,,,space,0.3562,,0,121,121,274,1,F, , , , ,space,2000,2,Elizabeth,001,2021-08-19_16h26.44.999,natb3,2021.2.3,Win32,60.0060006,60dfa3267e2f2d74059493ad,611e07ecdcc96256ae8d5b80,611e781c9d2973e37de6b33c,
,,,,space,0.5426,,0,122,122,304,1,S, , , , ,space,2000,2,Elizabeth,001,2021-08-19_16h26.44.999,natb3,2021.2.3,Win32,60.0060006,60dfa3267e2f2d74059493ad,611e07ecdcc96256ae8d5b80,611e781c9d2973e37de6b33c,
,,,,,,,0,123,123,153,1,X,4,7, ,6,,2000,2,Elizabeth,001,2021-08-19_16h26.44.999,natb3,2021.2.3,Win32,60.0060006,60dfa3267e2f2d74059493ad,611e07ecdcc96256ae8d5b80,611e781c9d2973e37de6b33c,
,,,,space,0.3977,,0,124,124,109,1,U, , , , ,space,1500,1.5,Elizabeth,001,2021-08-19_16h26.44.999,natb3,2021.2.3,Win32,60.0060006,60dfa3267e2f2d74059493ad,611e07ecdcc96256ae8d5b80,611e781c9d2973e37de6b33c,
,,,,space,0.4997,,0,125,125,34,1,Q, , , , ,space,2500,2.5,Elizabeth,001,2021-08-19_16h26.44.999,natb3,2021.2.3,Win32,60.0060006,60dfa3267e2f2d74059493ad,611e07ecdcc96256ae8d5b80,611e781c9d2973e37de6b33c,
,,,,space,0.4726,,0,126,126,244,1,J, , , , ,space,1500,1.5,Elizabeth,001,2021-08-19_16h26.44.999,natb3,2021.2.3,Win32,60.0060006,60dfa3267e2f2d74059493ad,611e07ecdcc96256ae8d5b80,611e781c9d2973e37de6b33c,
,,,,space,0.4679,,0,127,127,72,1,T, , , , ,space,1500,1.5,Elizabeth,001,2021-08-19_16h26.44.999,natb3,2021.2.3,Win32,60.0060006,60dfa3267e2f2d74059493ad,611e07ecdcc96256ae8d5b80,611e781c9d2973e37de6b33c,
,,,,space,0.5035,,0,128,128,230,1,U, , , , ,space,1500,1.5,Elizabeth,001,2021-08-19_16h26.44.999,natb3,2021.2.3,Win32,60.0060006,60dfa3267e2f2d74059493ad,611e07ecdcc96256ae8d5b80,611e781c9d2973e37de6b33c,
,,,,,,,0,129,129,74,1,X, ,4,3,2,,1500,1.5,Elizabeth,001,2021-08-19_16h26.44.999,natb3,2021.2.3,Win32,60.0060006,60dfa3267e2f2d74059493ad,611e07ecdcc96256ae8d5b80,611e781c9d2973e37de6b33c,
,,,,space,0.4244,,0,130,130,260,1,R, , , , ,space,2000,2,Elizabeth,001,2021-08-19_16h26.44.999,natb3,2021.2.3,Win32,60.0060006,60dfa3267e2f2d74059493ad,611e07ecdcc96256ae8d5b80,611e781c9d2973e37de6b33c,
,,,,space,0.386,,0,131,131,41,1,Y, , , , ,space,2500,2.5,Elizabeth,001,2021-08-19_16h26.44.999,natb3,2021.2.3,Win32,60.0060006,60dfa3267e2f2d74059493ad,611e07ecdcc96256ae8d5b80,611e781c9d2973e37de6b33c,
,,,,space,0.3717,,0,132,132,221,1,I, , , , ,space,2500,2.5,Elizabeth,001,2021-08-19_16h26.44.999,natb3,2021.2.3,Win32,60.0060006,60dfa3267e2f2d74059493ad,611e07ecdcc96256ae8d5b80,611e781c9d2973e37de6b33c,
,,,,space,0.4172,,0,133,133,8,1,U, , , , ,space,1500,1.5,Elizabeth,001,2021-08-19_16h26.44.999,natb3,2021.2.3,Win32,60.0060006,60dfa3267e2f2d74059493ad,611e07ecdcc96256ae8d5b80,611e781c9d2973e37de6b33c,
,,,,space,0.4061,,0,134,134,237,1,S, , , , ,space,1500,1.5,Elizabeth,001,2021-08-19_16h26.44.999,natb3,2021.2.3,Win32,60.0060006,60dfa3267e2f2d74059493ad,611e07ecdcc96256ae8d5b80,611e781c9d2973e37de6b33c,
,,,,space,0.4067,,0,135,135,11,1,P, , , , ,space,2500,2.5,Elizabeth,001,2021-08-19_16h26.44.999,natb3,2021.2.3,Win32,60.0060006,60dfa3267e2f2d74059493ad,611e07ecdcc96256ae8d5b80,611e781c9d2973e37de6b33c,
,,,,space,0.3839,,0,136,136,292,1,E, , , , ,space,2000,2,Elizabeth,001,2021-08-19_16h26.44.999,natb3,2021.2.3,Win32,60.0060006,60dfa3267e2f2d74059493ad,611e07ecdcc96256ae8d5b80,611e781c9d2973e37de6b33c,
,,,,space,0.4675,,0,137,137,284,1,V, , , , ,space,2500,2.5,Elizabeth,001,2021-08-19_16h26.44.999,natb3,2021.2.3,Win32,60.0060006,60dfa3267e2f2d74059493ad,611e07ecdcc96256ae8d5b80,611e781c9d2973e37de6b33c,
,,,,space,0.501,,0,138,138,301,1,P, , , , ,space,1500,1.5,Elizabeth,001,2021-08-19_16h26.44.999,natb3,2021.2.3,Win32,60.0060006,60dfa3267e2f2d74059493ad,611e07ecdcc96256ae8d5b80,611e781c9d2973e37de6b33c,
,,,,space,0.4355,,0,139,139,300,1,O, , , , ,space,2500,2.5,Elizabeth,001,2021-08-19_16h26.44.999,natb3,2021.2.3,Win32,60.0060006,60dfa3267e2f2d74059493ad,611e07ecdcc96256ae8d5b80,611e781c9d2973e37de6b33c,
,,,,space,0.4384,,0,140,140,135,1,K, , , , ,space,1500,1.5,Elizabeth,001,2021-08-19_16h26.44.999,natb3,2021.2.3,Win32,60.0060006,60dfa3267e2f2d74059493ad,611e07ecdcc96256ae8d5b80,611e781c9d2973e37de6b33c,
,,,,space,0.3515,,0,141,141,330,1,T, , , , ,space,2500,2.5,Elizabeth,001,2021-08-19_16h26.44.999,natb3,2021.2.3,Win32,60.0060006,60dfa3267e2f2d74059493ad,611e07ecdcc96256ae8d5b80,611e781c9d2973e37de6b33c,
,,,,space,0.3837,,0,142,142,123,1,O, , , , ,space,1500,1.5,Elizabeth,001,2021-08-19_16h26.44.999,natb3,2021.2.3,Win32,60.0060006,60dfa3267e2f2d74059493ad,611e07ecdcc96256ae8d5b80,611e781c9d2973e37de6b33c,
,,,,space,0.3854,,0,143,143,119,1,Y, , , , ,space,2500,2.5,Elizabeth,001,2021-08-19_16h26.44.999,natb3,2021.2.3,Win32,60.0060006,60dfa3267e2f2d74059493ad,611e07ecdcc96256ae8d5b80,611e781c9d2973e37de6b33c,
,,,,space,0.3843,,0,144,144,332,1,U, , , , ,space,2000,2,Elizabeth,001,2021-08-19_16h26.44.999,natb3,2021.2.3,Win32,60.0060006,60dfa3267e2f2d74059493ad,611e07ecdcc96256ae8d5b80,611e781c9d2973e37de6b33c,
,,,,space,0.3606,,0,145,145,36,1,W, , , , ,space,2000,2,Elizabeth,001,2021-08-19_16h26.44.999,natb3,2021.2.3,Win32,60.0060006,60dfa3267e2f2d74059493ad,611e07ecdcc96256ae8d5b80,611e781c9d2973e37de6b33c,
,,,,space,0.3678,,0,146,146,258,1,E, , , , ,space,1500,1.5,Elizabeth,001,2021-08-19_16h26.44.999,natb3,2021.2.3,Win32,60.0060006,60dfa3267e2f2d74059493ad,611e07ecdcc96256ae8d5b80,611e781c9d2973e37de6b33c,
,,,,,,,0,147,147,51,1,X,7,5,8, ,,1500,1.5,Elizabeth,001,2021-08-19_16h26.44.999,natb3,2021.2.3,Win32,60.0060006,60dfa3267e2f2d74059493ad,611e07ecdcc96256ae8d5b80,611e781c9d2973e37de6b33c,
,,,,,,,0,148,148,329,1,X,3,4, ,2,,2500,2.5,Elizabeth,001,2021-08-19_16h26.44.999,natb3,2021.2.3,Win32,60.0060006,60dfa3267e2f2d74059493ad,611e07ecdcc96256ae8d5b80,611e781c9d2973e37de6b33c,
,,,,space,0.5893,,0,149,149,261,1,T, , , , ,space,2000,2,Elizabeth,001,2021-08-19_16h26.44.999,natb3,2021.2.3,Win32,60.0060006,60dfa3267e2f2d74059493ad,611e07ecdcc96256ae8d5b80,611e781c9d2973e37de6b33c,
,,,,,,,0,150,150,89,1,X,3, , , ,,2000,2,Elizabeth,001,2021-08-19_16h26.44.999,natb3,2021.2.3,Win32,60.0060006,60dfa3267e2f2d74059493ad,611e07ecdcc96256ae8d5b80,611e781c9d2973e37de6b33c,
,,,,space,0.4675,,0,151,151,9,1,I, , , , ,space,1500,1.5,Elizabeth,001,2021-08-19_16h26.44.999,natb3,2021.2.3,Win32,60.0060006,60dfa3267e2f2d74059493ad,611e07ecdcc96256ae8d5b80,611e781c9d2973e37de6b33c,
,,,,space,0.4041,,0,152,152,308,1,G, , , , ,space,1500,1.5,Elizabeth,001,2021-08-19_16h26.44.999,natb3,2021.2.3,Win32,60.0060006,60dfa3267e2f2d74059493ad,611e07ecdcc96256ae8d5b80,611e781c9d2973e37de6b33c,
,,,,space,0.4334,,0,153,153,286,1,N, , , , ,space,1500,1.5,Elizabeth,001,2021-08-19_16h26.44.999,natb3,2021.2.3,Win32,60.0060006,60dfa3267e2f2d74059493ad,611e07ecdcc96256ae8d5b80,611e781c9d2973e37de6b33c,
,,,,space,0.4328,,0,154,154,226,1,R, , , , ,space,2000,2,Elizabeth,001,2021-08-19_16h26.44.999,natb3,2021.2.3,Win32,60.0060006,60dfa3267e2f2d74059493ad,611e07ecdcc96256ae8d5b80,611e781c9d2973e37de6b33c,
,,,,space,0.4058,,0,155,155,310,1,J, , , , ,space,2500,2.5,Elizabeth,001,2021-08-19_16h26.44.999,natb3,2021.2.3,Win32,60.0060006,60dfa3267e2f2d74059493ad,611e07ecdcc96256ae8d5b80,611e781c9d2973e37de6b33c,
,,,,,,,0,156,156,207,1,X,9, ,2, ,,2500,2.5,Elizabeth,001,2021-08-19_16h26.44.999,natb3,2021.2.3,Win32,60.0060006,60dfa3267e2f2d74059493ad,611e07ecdcc96256ae8d5b80,611e781c9d2973e37de6b33c,
,,,,space,0.4861,,0,157,157,290,1,W, , , , ,space,1500,1.5,Elizabeth,001,2021-08-19_16h26.44.999,natb3,2021.2.3,Win32,60.0060006,60dfa3267e2f2d74059493ad,611e07ecdcc96256ae8d5b80,611e781c9d2973e37de6b33c,
,,,,space,0.3764,,0,158,158,210,1,M, , , , ,space,1500,1.5,Elizabeth,001,2021-08-19_16h26.44.999,natb3,2021.2.3,Win32,60.0060006,60dfa3267e2f2d74059493ad,611e07ecdcc96256ae8d5b80,611e781c9d2973e37de6b33c,
,,,,,,,0,159,159,259,1,X,8, , ,3,,2500,2.5,Elizabeth,001,2021-08-19_16h26.44.999,natb3,2021.2.3,Win32,60.0060006,60dfa3267e2f2d74059493ad,611e07ecdcc96256ae8d5b80,611e781c9d2973e37de6b33c,
,,,,space,0.417,,0,160,160,227,1,T, , , , ,space,1500,1.5,Elizabeth,001,2021-08-19_16h26.44.999,natb3,2021.2.3,Win32,60.0060006,60dfa3267e2f2d74059493ad,611e07ecdcc96256ae8d5b80,611e781c9d2973e37de6b33c,
,,,,,,,0,161,161,218,1,X,1,3, ,8,,1500,1.5,Elizabeth,001,2021-08-19_16h26.44.999,natb3,2021.2.3,Win32,60.0060006,60dfa3267e2f2d74059493ad,611e07ecdcc96256ae8d5b80,611e781c9d2973e37de6b33c,
,,,,space,0.5493,,0,162,162,269,1,A, , , , ,space,2500,2.5,Elizabeth,001,2021-08-19_16h26.44.999,natb3,2021.2.3,Win32,60.0060006,60dfa3267e2f2d74059493ad,611e07ecdcc96256ae8d5b80,611e781c9d2973e37de6b33c,
,,,,space,0.348,,0,163,163,194,1,D, , , , ,space,2000,2,Elizabeth,001,2021-08-19_16h26.44.999,natb3,2021.2.3,Win32,60.0060006,60dfa3267e2f2d74059493ad,611e07ecdcc96256ae8d5b80,611e781c9d2973e37de6b33c,
,,,,space,0.4627,,0,164,164,312,1,K, , , , ,space,2000,2,Elizabeth,001,2021-08-19_16h26.44.999,natb3,2021.2.3,Win32,60.0060006,60dfa3267e2f2d74059493ad,611e07ecdcc96256ae8d5b80,611e781c9d2973e37de6b33c,
,,,,space,0.4391,,0,165,165,283,1,C, , , , ,space,1500,1.5,Elizabeth,001,2021-08-19_16h26.44.999,natb3,2021.2.3,Win32,60.0060006,60dfa3267e2f2d74059493ad,611e07ecdcc96256ae8d5b80,611e781c9d2973e37de6b33c,
,,,,space,0.4754,,0,166,166,64,1,N, , , , ,space,2000,2,Elizabeth,001,2021-08-19_16h26.44.999,natb3,2021.2.3,Win32,60.0060006,60dfa3267e2f2d74059493ad,611e07ecdcc96256ae8d5b80,611e781c9d2973e37de6b33c,
,,,,space,0.4075,space,0,167,167,173,1,V, , , , ,space,1500,1.5,Elizabeth,001,2021-08-19_16h26.44.999,natb3,2021.2.3,Win32,60.0060006,60dfa3267e2f2d74059493ad,611e07ecdcc96256ae8d5b80,611e781c9d2973e37de6b33c,36.3125
,,,,space,0.4493,,0,168,168,294,1,T, , , , ,space,2000,2,Elizabeth,001,2021-08-19_16h26.44.999,natb3,2021.2.3,Win32,60.0060006,60dfa3267e2f2d74059493ad,611e07ecdcc96256ae8d5b80,611e781c9d2973e37de6b33c,
,,,,space,0.4619,,0,169,169,101,1,Q, , , , ,space,2500,2.5,Elizabeth,001,2021-08-19_16h26.44.999,natb3,2021.2.3,Win32,60.0060006,60dfa3267e2f2d74059493ad,611e07ecdcc96256ae8d5b80,611e781c9d2973e37de6b33c,
,,,,,,,0,170,170,311,1,X,1,2,7,3,,2500,2.5,Elizabeth,001,2021-08-19_16h26.44.999,natb3,2021.2.3,Win32,60.0060006,60dfa3267e2f2d74059493ad,611e07ecdcc96256ae8d5b80,611e781c9d2973e37de6b33c,
,,,,space,0.3823,,0,171,171,52,1,F, , , , ,space,1500,1.5,Elizabeth,001,2021-08-19_16h26.44.999,natb3,2021.2.3,Win32,60.0060006,60dfa3267e2f2d74059493ad,611e07ecdcc96256ae8d5b80,611e781c9d2973e37de6b33c,
,,,,,,,0,172,172,141,1,X,1, ,4,6,,1500,1.5,Elizabeth,001,2021-08-19_16h26.44.999,natb3,2021.2.3,Win32,60.0060006,60dfa3267e2f2d74059493ad,611e07ecdcc96256ae8d5b80,611e781c9d2973e37de6b33c,
,,,,space,0.3176,,0,173,173,241,1,G, , , , ,space,2500,2.5,Elizabeth,001,2021-08-19_16h26.44.999,natb3,2021.2.3,Win32,60.0060006,60dfa3267e2f2d74059493ad,611e07ecdcc96256ae8d5b80,611e781c9d2973e37de6b33c,
,,,,space,0.388,,0,174,174,296,1,Y, , , , ,space,2500,2.5,Elizabeth,001,2021-08-19_16h26.44.999,natb3,2021.2.3,Win32,60.0060006,60dfa3267e2f2d74059493ad,611e07ecdcc96256ae8d5b80,611e781c9d2973e37de6b33c,
,,,,space,0.3241,,0,175,175,231,1,I, , , , ,space,2500,2.5,Elizabeth,001,2021-08-19_16h26.44.999,natb3,2021.2.3,Win32,60.0060006,60dfa3267e2f2d74059493ad,611e07ecdcc96256ae8d5b80,611e781c9d2973e37de6b33c,
,,,,space,0.3542,,0,176,176,45,1,O, , , , ,space,2000,2,Elizabeth,001,2021-08-19_16h26.44.999,natb3,2021.2.3,Win32,60.0060006,60dfa3267e2f2d74059493ad,611e07ecdcc96256ae8d5b80,611e781c9d2973e37de6b33c,
,,,,space,0.284,,0,177,177,151,1,Y, , , , ,space,2500,2.5,Elizabeth,001,2021-08-19_16h26.44.999,natb3,2021.2.3,Win32,60.0060006,60dfa3267e2f2d74059493ad,611e07ecdcc96256ae8d5b80,611e781c9d2973e37de6b33c,
,,,,space,0.3286,,0,178,178,108,1,Y, , , , ,space,2500,2.5,Elizabeth,001,2021-08-19_16h26.44.999,natb3,2021.2.3,Win32,60.0060006,60dfa3267e2f2d74059493ad,611e07ecdcc96256ae8d5b80,611e781c9d2973e37de6b33c,
,,,,space,0.3365,,0,179,179,238,1,D, , , , ,space,1500,1.5,Elizabeth,001,2021-08-19_16h26.44.999,natb3,2021.2.3,Win32,60.0060006,60dfa3267e2f2d74059493ad,611e07ecdcc96256ae8d5b80,611e781c9d2973e37de6b33c,
,,,,space,0.4178,,0,180,180,211,1,X, , , , ,,2500,2.5,Elizabeth,001,2021-08-19_16h26.44.999,natb3,2021.2.3,Win32,60.0060006,60dfa3267e2f2d74059493ad,611e07ecdcc96256ae8d5b80,611e781c9d2973e37de6b33c,
,,,,space,0.3549,,0,181,181,279,1,K, , , , ,space,2500,2.5,Elizabeth,001,2021-08-19_16h26.44.999,natb3,2021.2.3,Win32,60.0060006,60dfa3267e2f2d74059493ad,611e07ecdcc96256ae8d5b80,611e781c9d2973e37de6b33c,
,,,,space,0.4886,,0,182,182,6,1,Y, , , , ,space,2500,2.5,Elizabeth,001,2021-08-19_16h26.44.999,natb3,2021.2.3,Win32,60.0060006,60dfa3267e2f2d74059493ad,611e07ecdcc96256ae8d5b80,611e781c9d2973e37de6b33c,
,,,,,,,0,183,183,171,1,X, , , , ,,1500,1.5,Elizabeth,001,2021-08-19_16h26.44.999,natb3,2021.2.3,Win32,60.0060006,60dfa3267e2f2d74059493ad,611e07ecdcc96256ae8d5b80,611e781c9d2973e37de6b33c,
,,,,,,,0,184,184,313,1,X, , , , ,,2500,2.5,Elizabeth,001,2021-08-19_16h26.44.999,natb3,2021.2.3,Win32,60.0060006,60dfa3267e2f2d74059493ad,611e07ecdcc96256ae8d5b80,611e781c9d2973e37de6b33c,
,,,,space,0.3331,,0,185,185,247,1,Z, , , , ,space,1500,1.5,Elizabeth,001,2021-08-19_16h26.44.999,natb3,2021.2.3,Win32,60.0060006,60dfa3267e2f2d74059493ad,611e07ecdcc96256ae8d5b80,611e781c9d2973e37de6b33c,
,,,,,,,0,186,186,54,1,X, , , , ,,2000,2,Elizabeth,001,2021-08-19_16h26.44.999,natb3,2021.2.3,Win32,60.0060006,60dfa3267e2f2d74059493ad,611e07ecdcc96256ae8d5b80,611e781c9d2973e37de6b33c,
,,,,,,,0,187,187,200,1,X,7, ,5,3,,1500,1.5,Elizabeth,001,2021-08-19_16h26.44.999,natb3,2021.2.3,Win32,60.0060006,60dfa3267e2f2d74059493ad,611e07ecdcc96256ae8d5b80,611e781c9d2973e37de6b33c,
,,,,space,0.3529,,0,188,188,68,1,W, , , , ,space,2500,2.5,Elizabeth,001,2021-08-19_16h26.44.999,natb3,2021.2.3,Win32,60.0060006,60dfa3267e2f2d74059493ad,611e07ecdcc96256ae8d5b80,611e781c9d2973e37de6b33c,
,,,,,,,0,189,189,148,1,X, , , , ,,2000,2,Elizabeth,001,2021-08-19_16h26.44.999,natb3,2021.2.3,Win32,60.0060006,60dfa3267e2f2d74059493ad,611e07ecdcc96256ae8d5b80,611e781c9d2973e37de6b33c,
,,,,space,0.4453,,0,190,190,202,1,L, , , , ,space,2500,2.5,Elizabeth,001,2021-08-19_16h26.44.999,natb3,2021.2.3,Win32,60.0060006,60dfa3267e2f2d74059493ad,611e07ecdcc96256ae8d5b80,611e781c9d2973e37de6b33c,
,,,,,,,0,191,191,271,1,X, , , , ,,2500,2.5,Elizabeth,001,2021-08-19_16h26.44.999,natb3,2021.2.3,Win32,60.0060006,60dfa3267e2f2d74059493ad,611e07ecdcc96256ae8d5b80,611e781c9d2973e37de6b33c,
,,,,space,0.475,,0,192,192,3,1,R, , , , ,space,2000,2,Elizabeth,001,2021-08-19_16h26.44.999,natb3,2021.2.3,Win32,60.0060006,60dfa3267e2f2d74059493ad,611e07ecdcc96256ae8d5b80,611e781c9d2973e37de6b33c,
,,,,space,0.531,,0,193,193,126,1,A, , , , ,space,2500,2.5,Elizabeth,001,2021-08-19_16h26.44.999,natb3,2021.2.3,Win32,60.0060006,60dfa3267e2f2d74059493ad,611e07ecdcc96256ae8d5b80,611e781c9d2973e37de6b33c,
,,,,space,0.501,,0,194,194,235,1,A, , , , ,space,1500,1.5,Elizabeth,001,2021-08-19_16h26.44.999,natb3,2021.2.3,Win32,60.0060006,60dfa3267e2f2d74059493ad,611e07ecdcc96256ae8d5b80,611e781c9d2973e37de6b33c,
,,,,,,,0,195,195,158,1,X, , , , ,,1500,1.5,Elizabeth,001,2021-08-19_16h26.44.999,natb3,2021.2.3,Win32,60.0060006,60dfa3267e2f2d74059493ad,611e07ecdcc96256ae8d5b80,611e781c9d2973e37de6b33c,
,,,,space,0.507,,0,196,196,48,1,A, , , , ,space,2500,2.5,Elizabeth,001,2021-08-19_16h26.44.999,natb3,2021.2.3,Win32,60.0060006,60dfa3267e2f2d74059493ad,611e07ecdcc96256ae8d5b80,611e781c9d2973e37de6b33c,
,,,,,,,0,197,197,325,1,X, , , , ,,2500,2.5,Elizabeth,001,2021-08-19_16h26.44.999,natb3,2021.2.3,Win32,60.0060006,60dfa3267e2f2d74059493ad,611e07ecdcc96256ae8d5b80,611e781c9d2973e37de6b33c,
,,,,space,0.3583,,0,198,198,208,1,B, , , , ,space,1500,1.5,Elizabeth,001,2021-08-19_16h26.44.999,natb3,2021.2.3,Win32,60.0060006,60dfa3267e2f2d74059493ad,611e07ecdcc96256ae8d5b80,611e781c9d2973e37de6b33c,
,,,,,,,0,199,199,179,1,X, ,9, ,2,,1500,1.5,Elizabeth,001,2021-08-19_16h26.44.999,natb3,2021.2.3,Win32,60.0060006,60dfa3267e2f2d74059493ad,611e07ecdcc96256ae8d5b80,611e781c9d2973e37de6b33c,
,,,,,,,0,200,200,299,1,X, , , , ,,2500,2.5,Elizabeth,001,2021-08-19_16h26.44.999,natb3,2021.2.3,Win32,60.0060006,60dfa3267e2f2d74059493ad,611e07ecdcc96256ae8d5b80,611e781c9d2973e37de6b33c,
,,,,,,,0,201,201,23,1,X,1, ,5, ,,2000,2,Elizabeth,001,2021-08-19_16h26.44.999,natb3,2021.2.3,Win32,60.0060006,60dfa3267e2f2d74059493ad,611e07ecdcc96256ae8d5b80,611e781c9d2973e37de6b33c,
,,,,,,,0,202,202,145,1,X, , , , ,,2000,2,Elizabeth,001,2021-08-19_16h26.44.999,natb3,2021.2.3,Win32,60.0060006,60dfa3267e2f2d74059493ad,611e07ecdcc96256ae8d5b80,611e781c9d2973e37de6b33c,
,,,,space,0.4164,,0,203,203,172,1,C, , , , ,space,1500,1.5,Elizabeth,001,2021-08-19_16h26.44.999,natb3,2021.2.3,Win32,60.0060006,60dfa3267e2f2d74059493ad,611e07ecdcc96256ae8d5b80,611e781c9d2973e37de6b33c,
,,,,space,0.5027,,0,204,204,306,1,D, , , , ,space,2000,2,Elizabeth,001,2021-08-19_16h26.44.999,natb3,2021.2.3,Win32,60.0060006,60dfa3267e2f2d74059493ad,611e07ecdcc96256ae8d5b80,611e781c9d2973e37de6b33c,
,,,,space,0.535,,0,205,205,137,1,C, , , , ,space,2500,2.5,Elizabeth,001,2021-08-19_16h26.44.999,natb3,2021.2.3,Win32,60.0060006,60dfa3267e2f2d74059493ad,611e07ecdcc96256ae8d5b80,611e781c9d2973e37de6b33c,
,,,,space,0.4697,,0,206,206,136,1,Z, , , , ,space,2500,2.5,Elizabeth,001,2021-08-19_16h26.44.999,natb3,2021.2.3,Win32,60.0060006,60dfa3267e2f2d74059493ad,611e07ecdcc96256ae8d5b80,611e781c9d2973e37de6b33c,
,,,,space,0.4784,,0,207,207,303,1,A, , , , ,space,2000,2,Elizabeth,001,2021-08-19_16h26.44.999,natb3,2021.2.3,Win32,60.0060006,60dfa3267e2f2d74059493ad,611e07ecdcc96256ae8d5b80,611e781c9d2973e37de6b33c,
,,,,space,0.3504,,0,208,208,164,1,H, , , , ,space,2500,2.5,Elizabeth,001,2021-08-19_16h26.44.999,natb3,2021.2.3,Win32,60.0060006,60dfa3267e2f2d74059493ad,611e07ecdcc96256ae8d5b80,611e781c9d2973e37de6b33c,
,,,,space,0.387,,0,209,209,91,1,L, , , , ,space,2000,2,Elizabeth,001,2021-08-19_16h26.44.999,natb3,2021.2.3,Win32,60.0060006,60dfa3267e2f2d74059493ad,611e07ecdcc96256ae8d5b80,611e781c9d2973e37de6b33c,
,,,,,,,0,210,210,138,1,X,8,5, ,3,,2000,2,Elizabeth,001,2021-08-19_16h26.44.999,natb3,2021.2.3,Win32,60.0060006,60dfa3267e2f2d74059493ad,611e07ecdcc96256ae8d5b80,611e781c9d2973e37de6b33c,
,,,,,,,0,211,211,102,1,X, ,6, , ,,1500,1.5,Elizabeth,001,2021-08-19_16h26.44.999,natb3,2021.2.3,Win32,60.0060006,60dfa3267e2f2d74059493ad,611e07ecdcc96256ae8d5b80,611e781c9d2973e37de6b33c,
,,,,space,0.4155,,0,212,212,26,1,C, , , , ,space,2000,2,Elizabeth,001,2021-08-19_16h26.44.999,natb3,2021.2.3,Win32,60.0060006,60dfa3267e2f2d74059493ad,611e07ecdcc96256ae8d5b80,611e781c9d2973e37de6b33c,
,,,,,,,0,213,213,98,1,X, , , , ,,2500,2.5,Elizabeth,001,2021-08-19_16h26.44.999,natb3,2021.2.3,Win32,60.0060006,60dfa3267e2f2d74059493ad,611e07ecdcc96256ae8d5b80,611e781c9d2973e37de6b33c,
,,,,,,,0,214,214,69,1,X, , , , ,,1500,1.5,Elizabeth,001,2021-08-19_16h26.44.999,natb3,2021.2.3,Win32,60.0060006,60dfa3267e2f2d74059493ad,611e07ecdcc96256ae8d5b80,611e781c9d2973e37de6b33c,
,,,,space,0.4214,,0,215,215,59,1,Z, , , , ,space,2000,2,Elizabeth,001,2021-08-19_16h26.44.999,natb3,2021.2.3,Win32,60.0060006,60dfa3267e2f2d74059493ad,611e07ecdcc96256ae8d5b80,611e781c9d2973e37de6b33c,
,,,,space,0.3938,,0,216,216,163,1,G, , , , ,space,2500,2.5,Elizabeth,001,2021-08-19_16h26.44.999,natb3,2021.2.3,Win32,60.0060006,60dfa3267e2f2d74059493ad,611e07ecdcc96256ae8d5b80,611e781c9d2973e37de6b33c,
,,,,space,0.3779,,0,217,217,44,1,I, , , , ,space,2500,2.5,Elizabeth,001,2021-08-19_16h26.44.999,natb3,2021.2.3,Win32,60.0060006,60dfa3267e2f2d74059493ad,611e07ecdcc96256ae8d5b80,611e781c9d2973e37de6b33c,
,,,,space,0.3764,,0,218,218,293,1,R, , , , ,space,2500,2.5,Elizabeth,001,2021-08-19_16h26.44.999,natb3,2021.2.3,Win32,60.0060006,60dfa3267e2f2d74059493ad,611e07ecdcc96256ae8d5b80,611e781c9d2973e37de6b33c,
,,,,space,0.4006,,0,219,219,150,1,T, , , , ,space,2500,2.5,Elizabeth,001,2021-08-19_16h26.44.999,natb3,2021.2.3,Win32,60.0060006,60dfa3267e2f2d74059493ad,611e07ecdcc96256ae8d5b80,611e781c9d2973e37de6b33c,
,,,,space,0.4605,,0,220,220,289,1,Q, , , , ,space,2000,2,Elizabeth,001,2021-08-19_16h26.44.999,natb3,2021.2.3,Win32,60.0060006,60dfa3267e2f2d74059493ad,611e07ecdcc96256ae8d5b80,611e781c9d2973e37de6b33c,
,,,,space,0.3916,,0,221,221,61,1,C, , , , ,space,2000,2,Elizabeth,001,2021-08-19_16h26.44.999,natb3,2021.2.3,Win32,60.0060006,60dfa3267e2f2d74059493ad,611e07ecdcc96256ae8d5b80,611e781c9d2973e37de6b33c,
,,,,space,0.3507,,0,222,222,321,1,N, , , , ,space,2000,2,Elizabeth,001,2021-08-19_16h26.44.999,natb3,2021.2.3,Win32,60.0060006,60dfa3267e2f2d74059493ad,611e07ecdcc96256ae8d5b80,611e781c9d2973e37de6b33c,
,,,,space,0.613,,0,223,223,335,1,P,,,,,space,1500,1.5,Elizabeth,001,2021-08-19_16h26.44.999,natb3,2021.2.3,Win32,60.0060006,60dfa3267e2f2d74059493ad,611e07ecdcc96256ae8d5b80,611e781c9d2973e37de6b33c,
,,,,space,0.5251,,0,224,224,266,1,O, , , , ,space,1500,1.5,Elizabeth,001,2021-08-19_16h26.44.999,natb3,2021.2.3,Win32,60.0060006,60dfa3267e2f2d74059493ad,611e07ecdcc96256ae8d5b80,611e781c9d2973e37de6b33c,
,,,,,,,0,225,225,122,1,X,1, , ,8,,1500,1.5,Elizabeth,001,2021-08-19_16h26.44.999,natb3,2021.2.3,Win32,60.0060006,60dfa3267e2f2d74059493ad,611e07ecdcc96256ae8d5b80,611e781c9d2973e37de6b33c,
,,,,,,,0,226,226,166,1,X, , , , ,,2000,2,Elizabeth,001,2021-08-19_16h26.44.999,natb3,2021.2.3,Win32,60.0060006,60dfa3267e2f2d74059493ad,611e07ecdcc96256ae8d5b80,611e781c9d2973e37de6b33c,
,,,,space,0.4233,,0,227,227,114,1,E, , , , ,space,2000,2,Elizabeth,001,2021-08-19_16h26.44.999,natb3,2021.2.3,Win32,60.0060006,60dfa3267e2f2d74059493ad,611e07ecdcc96256ae8d5b80,611e781c9d2973e37de6b33c,
,,,,space,0.5445,,0,228,228,146,1,W, , , , ,space,1500,1.5,Elizabeth,001,2021-08-19_16h26.44.999,natb3,2021.2.3,Win32,60.0060006,60dfa3267e2f2d74059493ad,611e07ecdcc96256ae8d5b80,611e781c9d2973e37de6b33c,
,,,,,,,0,229,229,4,1,X, , , , ,,2000,2,Elizabeth,001,2021-08-19_16h26.44.999,natb3,2021.2.3,Win32,60.0060006,60dfa3267e2f2d74059493ad,611e07ecdcc96256ae8d5b80,611e781c9d2973e37de6b33c,
,,,,,,,0,230,230,60,1,X,7,3,5, ,,1500,1.5,Elizabeth,001,2021-08-19_16h26.44.999,natb3,2021.2.3,Win32,60.0060006,60dfa3267e2f2d74059493ad,611e07ecdcc96256ae8d5b80,611e781c9d2973e37de6b33c,
,,,,,,,0,231,231,187,1,X, ,3,7,4,,1500,1.5,Elizabeth,001,2021-08-19_16h26.44.999,natb3,2021.2.3,Win32,60.0060006,60dfa3267e2f2d74059493ad,611e07ecdcc96256ae8d5b80,611e781c9d2973e37de6b33c,
,,,,space,0.4332,,0,232,232,328,1,R, , , , ,space,1500,1.5,Elizabeth,001,2021-08-19_16h26.44.999,natb3,2021.2.3,Win32,60.0060006,60dfa3267e2f2d74059493ad,611e07ecdcc96256ae8d5b80,611e781c9d2973e37de6b33c,
,,,,space,0.441,,0,233,233,149,1,R, , , , ,space,2000,2,Elizabeth,001,2021-08-19_16h26.44.999,natb3,2021.2.3,Win32,60.0060006,60dfa3267e2f2d74059493ad,611e07ecdcc96256ae8d5b80,611e781c9d2973e37de6b33c,
,,,,space,0.3578,,0,234,234,188,1,I, , , , ,space,2500,2.5,Elizabeth,001,2021-08-19_16h26.44.999,natb3,2021.2.3,Win32,60.0060006,60dfa3267e2f2d74059493ad,611e07ecdcc96256ae8d5b80,611e781c9d2973e37de6b33c,
,,,,space,0.3177,,0,235,235,177,1,M, , , , ,space,2500,2.5,Elizabeth,001,2021-08-19_16h26.44.999,natb3,2021.2.3,Win32,60.0060006,60dfa3267e2f2d74059493ad,611e07ecdcc96256ae8d5b80,611e781c9d2973e37de6b33c,
,,,,space,0.5379,,0,236,236,288,1,M, , , , ,space,1500,1.5,Elizabeth,001,2021-08-19_16h26.44.999,natb3,2021.2.3,Win32,60.0060006,60dfa3267e2f2d74059493ad,611e07ecdcc96256ae8d5b80,611e781c9d2973e37de6b33c,
,,,,,,,0,237,237,78,1,X, , , , ,,2000,2,Elizabeth,001,2021-08-19_16h26.44.999,natb3,2021.2.3,Win32,60.0060006,60dfa3267e2f2d74059493ad,611e07ecdcc96256ae8d5b80,611e781c9d2973e37de6b33c,
,,,,,,,0,238,238,263,1,X,4, ,6, ,,1500,1.5,Elizabeth,001,2021-08-19_16h26.44.999,natb3,2021.2.3,Win32,60.0060006,60dfa3267e2f2d74059493ad,611e07ecdcc96256ae8d5b80,611e781c9d2973e37de6b33c,
,,,,space,0.4425,,0,239,239,57,1,K, , , , ,space,2500,2.5,Elizabeth,001,2021-08-19_16h26.44.999,natb3,2021.2.3,Win32,60.0060006,60dfa3267e2f2d74059493ad,611e07ecdcc96256ae8d5b80,611e781c9d2973e37de6b33c,
,,,,space,0.437,,0,240,240,192,1,A, , , , ,space,2000,2,Elizabeth,001,2021-08-19_16h26.44.999,natb3,2021.2.3,Win32,60.0060006,60dfa3267e2f2d74059493ad,611e07ecdcc96256ae8d5b80,611e781c9d2973e37de6b33c,
,,,,space,0.3497,,0,241,241,232,1,O, , , , ,space,2500,2.5,Elizabeth,001,2021-08-19_16h26.44.999,natb3,2021.2.3,Win32,60.0060006,60dfa3267e2f2d74059493ad,611e07ecdcc96256ae8d5b80,611e781c9d2973e37de6b33c,
,,,,space,0.4353,,0,242,242,19,1,G, , , , ,space,1500,1.5,Elizabeth,001,2021-08-19_16h26.44.999,natb3,2021.2.3,Win32,60.0060006,60dfa3267e2f2d74059493ad,611e07ecdcc96256ae8d5b80,611e781c9d2973e37de6b33c,
,,,,,,,0,243,243,93,1,X,5, ,7, ,,2500,2.5,Elizabeth,001,2021-08-19_16h26.44.999,natb3,2021.2.3,Win32,60.0060006,60dfa3267e2f2d74059493ad,611e07ecdcc96256ae8d5b80,611e781c9d2973e37de6b33c,
,,,,space,0.3315,,0,244,244,154,1,I, , , , ,space,2500,2.5,Elizabeth,001,2021-08-19_16h26.44.999,natb3,2021.2.3,Win32,60.0060006,60dfa3267e2f2d74059493ad,611e07ecdcc96256ae8d5b80,611e781c9d2973e37de6b33c,
,,,,space,0.5411,,0,245,245,316,1,Z, , , , ,space,1500,1.5,Elizabeth,001,2021-08-19_16h26.44.999,natb3,2021.2.3,Win32,60.0060006,60dfa3267e2f2d74059493ad,611e07ecdcc96256ae8d5b80,611e781c9d2973e37de6b33c,
,,,,,,,0,246,246,39,1,X,6,2, , ,,1500,1.5,Elizabeth,001,2021-08-19_16h26.44.999,natb3,2021.2.3,Win32,60.0060006,60dfa3267e2f2d74059493ad,611e07ecdcc96256ae8d5b80,611e781c9d2973e37de6b33c,
,,,,space,0.3948,,0,247,247,65,1,M, , , , ,space,1500,1.5,Elizabeth,001,2021-08-19_16h26.44.999,natb3,2021.2.3,Win32,60.0060006,60dfa3267e2f2d74059493ad,611e07ecdcc96256ae8d5b80,611e781c9d2973e37de6b33c,
,,,,space,0.344,,0,248,248,83,1,D, , , , ,space,2000,2,Elizabeth,001,2021-08-19_16h26.44.999,natb3,2021.2.3,Win32,60.0060006,60dfa3267e2f2d74059493ad,611e07ecdcc96256ae8d5b80,611e781c9d2973e37de6b33c,
,,,,space,0.3504,,0,249,249,251,1,B, , , , ,space,1500,1.5,Elizabeth,001,2021-08-19_16h26.44.999,natb3,2021.2.3,Win32,60.0060006,60dfa3267e2f2d74059493ad,611e07ecdcc96256ae8d5b80,611e781c9d2973e37de6b33c,
,,,,space,0.3295,,0,250,250,115,1,R, , , , ,space,1500,1.5,Elizabeth,001,2021-08-19_16h26.44.999,natb3,2021.2.3,Win32,60.0060006,60dfa3267e2f2d74059493ad,611e07ecdcc96256ae8d5b80,611e781c9d2973e37de6b33c,
,,,,space,0.3615,,0,251,251,170,1,Z, , , , ,space,2000,2,Elizabeth,001,2021-08-19_16h26.44.999,natb3,2021.2.3,Win32,60.0060006,60dfa3267e2f2d74059493ad,611e07ecdcc96256ae8d5b80,611e781c9d2973e37de6b33c,
,,,,space,0.4115,,0,252,252,309,1,H, , , , ,space,2500,2.5,Elizabeth,001,2021-08-19_16h26.44.999,natb3,2021.2.3,Win32,60.0060006,60dfa3267e2f2d74059493ad,611e07ecdcc96256ae8d5b80,611e781c9d2973e37de6b33c,
,,,,space,0.3967,,0,253,253,14,1,S, , , , ,space,2500,2.5,Elizabeth,001,2021-08-19_16h26.44.999,natb3,2021.2.3,Win32,60.0060006,60dfa3267e2f2d74059493ad,611e07ecdcc96256ae8d5b80,611e781c9d2973e37de6b33c,
,,,,,,,0,254,254,66,1,X, ,4,7, ,,2000,2,Elizabeth,001,2021-08-19_16h26.44.999,natb3,2021.2.3,Win32,60.0060006,60dfa3267e2f2d74059493ad,611e07ecdcc96256ae8d5b80,611e781c9d2973e37de6b33c,
,,,,space,0.5671,,0,255,255,90,1,K, , , , ,space,2000,2,Elizabeth,001,2021-08-19_16h26.44.999,natb3,2021.2.3,Win32,60.0060006,60dfa3267e2f2d74059493ad,611e07ecdcc96256ae8d5b80,611e781c9d2973e37de6b33c,
,,,,space,0.5458,,0,256,256,265,1,I, , , , ,space,2000,2,Elizabeth,001,2021-08-19_16h26.44.999,natb3,2021.2.3,Win32,60.0060006,60dfa3267e2f2d74059493ad,611e07ecdcc96256ae8d5b80,611e781c9d2973e37de6b33c,
,,,,space,0.6499,,0,257,257,62,1,V, , , , ,space,1500,1.5,Elizabeth,001,2021-08-19_16h26.44.999,natb3,2021.2.3,Win32,60.0060006,60dfa3267e2f2d74059493ad,611e07ecdcc96256ae8d5b80,611e781c9d2973e37de6b33c,
,,,,,,,0,258,258,273,1,X, , , , ,,2000,2,Elizabeth,001,2021-08-19_16h26.44.999,natb3,2021.2.3,Win32,60.0060006,60dfa3267e2f2d74059493ad,611e07ecdcc96256ae8d5b80,611e781c9d2973e37de6b33c,
,,,,space,0.5324,,0,259,259,285,1,B, , , , ,space,1500,1.5,Elizabeth,001,2021-08-19_16h26.44.999,natb3,2021.2.3,Win32,60.0060006,60dfa3267e2f2d74059493ad,611e07ecdcc96256ae8d5b80,611e781c9d2973e37de6b33c,
,,,,space,0.3698,,0,260,260,147,1,E, , , , ,space,2000,2,Elizabeth,001,2021-08-19_16h26.44.999,natb3,2021.2.3,Win32,60.0060006,60dfa3267e2f2d74059493ad,611e07ecdcc96256ae8d5b80,611e781c9d2973e37de6b33c,
,,,,,,,0,261,261,15,1,X, , , , ,,1500,1.5,Elizabeth,001,2021-08-19_16h26.44.999,natb3,2021.2.3,Win32,60.0060006,60dfa3267e2f2d74059493ad,611e07ecdcc96256ae8d5b80,611e781c9d2973e37de6b33c,
,,,,space,0.4337,,0,262,262,92,1,Z, , , , ,space,1500,1.5,Elizabeth,001,2021-08-19_16h26.44.999,natb3,2021.2.3,Win32,60.0060006,60dfa3267e2f2d74059493ad,611e07ecdcc96256ae8d5b80,611e781c9d2973e37de6b33c,
,,,,,,,0,263,263,175,1,X,7, ,4,2,,1500,1.5,Elizabeth,001,2021-08-19_16h26.44.999,natb3,2021.2.3,Win32,60.0060006,60dfa3267e2f2d74059493ad,611e07ecdcc96256ae8d5b80,611e781c9d2973e37de6b33c,
,,,,space,0.3729,,0,264,264,217,1,T, , , , ,space,2500,2.5,Elizabeth,001,2021-08-19_16h26.44.999,natb3,2021.2.3,Win32,60.0060006,60dfa3267e2f2d74059493ad,611e07ecdcc96256ae8d5b80,611e781c9d2973e37de6b33c,
,,,,space,0.3958,,0,265,265,13,1,A, , , , ,space,2000,2,Elizabeth,001,2021-08-19_16h26.44.999,natb3,2021.2.3,Win32,60.0060006,60dfa3267e2f2d74059493ad,611e07ecdcc96256ae8d5b80,611e781c9d2973e37de6b33c,
,,,,,,,0,266,266,168,1,X, , , , ,,2500,2.5,Elizabeth,001,2021-08-19_16h26.44.999,natb3,2021.2.3,Win32,60.0060006,60dfa3267e2f2d74059493ad,611e07ecdcc96256ae8d5b80,611e781c9d2973e37de6b33c,
,,,,,,,0,267,267,277,1,X,8,5, ,2,,2000,2,Elizabeth,001,2021-08-19_16h26.44.999,natb3,2021.2.3,Win32,60.0060006,60dfa3267e2f2d74059493ad,611e07ecdcc96256ae8d5b80,611e781c9d2973e37de6b33c,
,,,,space,0.4009,,0,268,268,84,1,X, , , , ,,2000,2,Elizabeth,001,2021-08-19_16h26.44.999,natb3,2021.2.3,Win32,60.0060006,60dfa3267e2f2d74059493ad,611e07ecdcc96256ae8d5b80,611e781c9d2973e37de6b33c,
,,,,space,0.3722,,0,269,269,86,1,G, , , , ,space,2000,2,Elizabeth,001,2021-08-19_16h26.44.999,natb3,2021.2.3,Win32,60.0060006,60dfa3267e2f2d74059493ad,611e07ecdcc96256ae8d5b80,611e781c9d2973e37de6b33c,
,,,,,,,0,270,270,82,1,X,4,6,1,7,,2000,2,Elizabeth,001,2021-08-19_16h26.44.999,natb3,2021.2.3,Win32,60.0060006,60dfa3267e2f2d74059493ad,611e07ecdcc96256ae8d5b80,611e781c9d2973e37de6b33c,
,,,,space,0.4271,,0,271,271,198,1,H, , , , ,space,2500,2.5,Elizabeth,001,2021-08-19_16h26.44.999,natb3,2021.2.3,Win32,60.0060006,60dfa3267e2f2d74059493ad,611e07ecdcc96256ae8d5b80,611e781c9d2973e37de6b33c,
,,,,space,0.4283,,0,272,272,156,1,P, , , , ,space,1500,1.5,Elizabeth,001,2021-08-19_16h26.44.999,natb3,2021.2.3,Win32,60.0060006,60dfa3267e2f2d74059493ad,611e07ecdcc96256ae8d5b80,611e781c9d2973e37de6b33c,
,,,,,,,0,273,273,133,1,X, ,4, ,6,,2500,2.5,Elizabeth,001,2021-08-19_16h26.44.999,natb3,2021.2.3,Win32,60.0060006,60dfa3267e2f2d74059493ad,611e07ecdcc96256ae8d5b80,611e781c9d2973e37de6b33c,
,,,,space,0.4369,,0,274,274,28,1,V, , , , ,space,1500,1.5,Elizabeth,001,2021-08-19_16h26.44.999,natb3,2021.2.3,Win32,60.0060006,60dfa3267e2f2d74059493ad,611e07ecdcc96256ae8d5b80,611e781c9d2973e37de6b33c,
,,,,,,,0,275,275,118,1,X, , , , ,,2000,2,Elizabeth,001,2021-08-19_16h26.44.999,natb3,2021.2.3,Win32,60.0060006,60dfa3267e2f2d74059493ad,611e07ecdcc96256ae8d5b80,611e781c9d2973e37de6b33c,
,,,,,,,0,276,276,295,1,X,8,7,5, ,,2500,2.5,Elizabeth,001,2021-08-19_16h26.44.999,natb3,2021.2.3,Win32,60.0060006,60dfa3267e2f2d74059493ad,611e07ecdcc96256ae8d5b80,611e781c9d2973e37de6b33c,
,,,,space,0.5051,,0,277,277,253,1,N, , , , ,space,2500,2.5,Elizabeth,001,2021-08-19_16h26.44.999,natb3,2021.2.3,Win32,60.0060006,60dfa3267e2f2d74059493ad,611e07ecdcc96256ae8d5b80,611e781c9d2973e37de6b33c,
,,,,space,0.4359,,0,278,278,50,1,D, , , , ,space,1500,1.5,Elizabeth,001,2021-08-19_16h26.44.999,natb3,2021.2.3,Win32,60.0060006,60dfa3267e2f2d74059493ad,611e07ecdcc96256ae8d5b80,611e781c9d2973e37de6b33c,
,,,,space,0.5675,,0,279,279,79,1,P, , , , ,space,2000,2,Elizabeth,001,2021-08-19_16h26.44.999,natb3,2021.2.3,Win32,60.0060006,60dfa3267e2f2d74059493ad,611e07ecdcc96256ae8d5b80,611e781c9d2973e37de6b33c,
,,,,,,,0,280,280,229,1,X,8, ,2,6,,2500,2.5,Elizabeth,001,2021-08-19_16h26.44.999,natb3,2021.2.3,Win32,60.0060006,60dfa3267e2f2d74059493ad,611e07ecdcc96256ae8d5b80,611e781c9d2973e37de6b33c,
,,,,space,0.4056,,0,281,281,272,1,D, , , , ,space,2000,2,Elizabeth,001,2021-08-19_16h26.44.999,natb3,2021.2.3,Win32,60.0060006,60dfa3267e2f2d74059493ad,611e07ecdcc96256ae8d5b80,611e781c9d2973e37de6b33c,
,,,,space,0.3702,,0,282,282,81,1,S, , , , ,space,2000,2,Elizabeth,001,2021-08-19_16h26.44.999,natb3,2021.2.3,Win32,60.0060006,60dfa3267e2f2d74059493ad,611e07ecdcc96256ae8d5b80,611e781c9d2973e37de6b33c,
,,,,space,0.401,,0,283,283,134,1,J, , , , ,space,2000,2,Elizabeth,001,2021-08-19_16h26.44.999,natb3,2021.2.3,Win32,60.0060006,60dfa3267e2f2d74059493ad,611e07ecdcc96256ae8d5b80,611e781c9d2973e37de6b33c,
,,,,space,0.3946,,0,284,284,10,1,O, , , , ,space,2000,2,Elizabeth,001,2021-08-19_16h26.44.999,natb3,2021.2.3,Win32,60.0060006,60dfa3267e2f2d74059493ad,611e07ecdcc96256ae8d5b80,611e781c9d2973e37de6b33c,
,,,,,,,0,285,285,243,1,X, , , , ,,2500,2.5,Elizabeth,001,2021-08-19_16h26.44.999,natb3,2021.2.3,Win32,60.0060006,60dfa3267e2f2d74059493ad,611e07ecdcc96256ae8d5b80,611e781c9d2973e37de6b33c,
,,,,space,0.3667,,0,286,286,105,1,R, , , , ,space,2500,2.5,Elizabeth,001,2021-08-19_16h26.44.999,natb3,2021.2.3,Win32,60.0060006,60dfa3267e2f2d74059493ad,611e07ecdcc96256ae8d5b80,611e781c9d2973e37de6b33c,
,,,,,,,0,287,287,27,1,X,5, ,1,3,,1500,1.5,Elizabeth,001,2021-08-19_16h26.44.999,natb3,2021.2.3,Win32,60.0060006,60dfa3267e2f2d74059493ad,611e07ecdcc96256ae8d5b80,611e781c9d2973e37de6b33c,
,,,,space,0.4083,,0,288,288,199,1,J, , , , ,space,2500,2.5,Elizabeth,001,2021-08-19_16h26.44.999,natb3,2021.2.3,Win32,60.0060006,60dfa3267e2f2d74059493ad,611e07ecdcc96256ae8d5b80,611e781c9d2973e37de6b33c,
,,,,space,0.4975,,0,289,289,331,1,Y, , , , ,space,2500,2.5,Elizabeth,001,2021-08-19_16h26.44.999,natb3,2021.2.3,Win32,60.0060006,60dfa3267e2f2d74059493ad,611e07ecdcc96256ae8d5b80,611e781c9d2973e37de6b33c,
,,,,space,0.4894,,0,290,290,55,1,H, , , , ,space,2500,2.5,Elizabeth,001,2021-08-19_16h26.44.999,natb3,2021.2.3,Win32,60.0060006,60dfa3267e2f2d74059493ad,611e07ecdcc96256ae8d5b80,611e781c9d2973e37de6b33c,
,,,,space,0.3997,,0,291,291,120,1,U, , , , ,space,1500,1.5,Elizabeth,001,2021-08-19_16h26.44.999,natb3,2021.2.3,Win32,60.0060006,60dfa3267e2f2d74059493ad,611e07ecdcc96256ae8d5b80,611e781c9d2973e37de6b33c,
,,,,space,0.3393,,0,292,292,276,1,H, , , , ,space,2000,2,Elizabeth,001,2021-08-19_16h26.44.999,natb3,2021.2.3,Win32,60.0060006,60dfa3267e2f2d74059493ad,611e07ecdcc96256ae8d5b80,611e781c9d2973e37de6b33c,
,,,,space,0.3786,,0,293,293,181,1,E, , , , ,space,1500,1.5,Elizabeth,001,2021-08-19_16h26.44.999,natb3,2021.2.3,Win32,60.0060006,60dfa3267e2f2d74059493ad,611e07ecdcc96256ae8d5b80,611e781c9d2973e37de6b33c,
,,,,space,0.3743,,0,294,294,131,1,G, , , , ,space,1500,1.5,Elizabeth,001,2021-08-19_16h26.44.999,natb3,2021.2.3,Win32,60.0060006,60dfa3267e2f2d74059493ad,611e07ecdcc96256ae8d5b80,611e781c9d2973e37de6b33c,
,,,,space,0.4043,,0,295,295,88,1,J, , , , ,space,2500,2.5,Elizabeth,001,2021-08-19_16h26.44.999,natb3,2021.2.3,Win32,60.0060006,60dfa3267e2f2d74059493ad,611e07ecdcc96256ae8d5b80,611e781c9d2973e37de6b33c,
,,,,space,0.375,,0,296,296,7,1,X, , , , ,,1500,1.5,Elizabeth,001,2021-08-19_16h26.44.999,natb3,2021.2.3,Win32,60.0060006,60dfa3267e2f2d74059493ad,611e07ecdcc96256ae8d5b80,611e781c9d2973e37de6b33c,
,,,,space,0.3669,,0,297,297,193,1,S, , , , ,space,2500,2.5,Elizabeth,001,2021-08-19_16h26.44.999,natb3,2021.2.3,Win32,60.0060006,60dfa3267e2f2d74059493ad,611e07ecdcc96256ae8d5b80,611e781c9d2973e37de6b33c,
,,,,space,0.3843,,0,298,298,189,1,O, , , , ,space,1500,1.5,Elizabeth,001,2021-08-19_16h26.44.999,natb3,2021.2.3,Win32,60.0060006,60dfa3267e2f2d74059493ad,611e07ecdcc96256ae8d5b80,611e781c9d2973e37de6b33c,
,,,,space,0.5014,,0,299,299,206,1,V, , , , ,space,2000,2,Elizabeth,001,2021-08-19_16h26.44.999,natb3,2021.2.3,Win32,60.0060006,60dfa3267e2f2d74059493ad,611e07ecdcc96256ae8d5b80,611e781c9d2973e37de6b33c,
,,,,,,,0,300,300,12,1,X, , , , ,,1500,1.5,Elizabeth,001,2021-08-19_16h26.44.999,natb3,2021.2.3,Win32,60.0060006,60dfa3267e2f2d74059493ad,611e07ecdcc96256ae8d5b80,611e781c9d2973e37de6b33c,
,,,,,,,0,301,301,43,1,X, ,6, ,2,,2500,2.5,Elizabeth,001,2021-08-19_16h26.44.999,natb3,2021.2.3,Win32,60.0060006,60dfa3267e2f2d74059493ad,611e07ecdcc96256ae8d5b80,611e781c9d2973e37de6b33c,
,,,,,,,0,302,302,322,1,X, , ,1,6,,2000,2,Elizabeth,001,2021-08-19_16h26.44.999,natb3,2021.2.3,Win32,60.0060006,60dfa3267e2f2d74059493ad,611e07ecdcc96256ae8d5b80,611e781c9d2973e37de6b33c,
,,,,space,0.42,,0,303,303,320,1,B, , , , ,space,1500,1.5,Elizabeth,001,2021-08-19_16h26.44.999,natb3,2021.2.3,Win32,60.0060006,60dfa3267e2f2d74059493ad,611e07ecdcc96256ae8d5b80,611e781c9d2973e37de6b33c,
,,,,space,0.635,,0,304,304,25,1,Z, , , , ,space,2500,2.5,Elizabeth,001,2021-08-19_16h26.44.999,natb3,2021.2.3,Win32,60.0060006,60dfa3267e2f2d74059493ad,611e07ecdcc96256ae8d5b80,611e781c9d2973e37de6b33c,
,,,,,,,0,305,305,252,1,X,3, ,6,9,,2000,2,Elizabeth,001,2021-08-19_16h26.44.999,natb3,2021.2.3,Win32,60.0060006,60dfa3267e2f2d74059493ad,611e07ecdcc96256ae8d5b80,611e781c9d2973e37de6b33c,
,,,,space,0.4673,,0,306,306,161,1,F, , , , ,space,1500,1.5,Elizabeth,001,2021-08-19_16h26.44.999,natb3,2021.2.3,Win32,60.0060006,60dfa3267e2f2d74059493ad,611e07ecdcc96256ae8d5b80,611e781c9d2973e37de6b33c,
,,,,space,0.5015,,0,307,307,56,1,J, , , , ,space,1500,1.5,Elizabeth,001,2021-08-19_16h26.44.999,natb3,2021.2.3,Win32,60.0060006,60dfa3267e2f2d74059493ad,611e07ecdcc96256ae8d5b80,611e781c9d2973e37de6b33c,
,,,,,,,0,308,308,107,1,X,9,3, ,2,,2000,2,Elizabeth,001,2021-08-19_16h26.44.999,natb3,2021.2.3,Win32,60.0060006,60dfa3267e2f2d74059493ad,611e07ecdcc96256ae8d5b80,611e781c9d2973e37de6b33c,
,,,,space,0.4081,,0,309,309,204,1,Z, , , , ,space,2000,2,Elizabeth,001,2021-08-19_16h26.44.999,natb3,2021.2.3,Win32,60.0060006,60dfa3267e2f2d74059493ad,611e07ecdcc96256ae8d5b80,611e781c9d2973e37de6b33c,
,,,,space,0.4347,,0,310,310,257,1,W, , , , ,space,2000,2,Elizabeth,001,2021-08-19_16h26.44.999,natb3,2021.2.3,Win32,60.0060006,60dfa3267e2f2d74059493ad,611e07ecdcc96256ae8d5b80,611e781c9d2973e37de6b33c,
,,,,space,0.4211,,0,311,311,242,1,H, , , , ,space,2500,2.5,Elizabeth,001,2021-08-19_16h26.44.999,natb3,2021.2.3,Win32,60.0060006,60dfa3267e2f2d74059493ad,611e07ecdcc96256ae8d5b80,611e781c9d2973e37de6b33c,
,,,,space,0.4276,,0,312,312,94,1,C, , , , ,space,2000,2,Elizabeth,001,2021-08-19_16h26.44.999,natb3,2021.2.3,Win32,60.0060006,60dfa3267e2f2d74059493ad,611e07ecdcc96256ae8d5b80,611e781c9d2973e37de6b33c,
,,,,space,0.3921,,0,313,313,222,1,O, , , , ,space,2000,2,Elizabeth,001,2021-08-19_16h26.44.999,natb3,2021.2.3,Win32,60.0060006,60dfa3267e2f2d74059493ad,611e07ecdcc96256ae8d5b80,611e781c9d2973e37de6b33c,
,,,,space,0.3854,,0,314,314,212,1,Q, , , , ,space,2500,2.5,Elizabeth,001,2021-08-19_16h26.44.999,natb3,2021.2.3,Win32,60.0060006,60dfa3267e2f2d74059493ad,611e07ecdcc96256ae8d5b80,611e781c9d2973e37de6b33c,
,,,,space,0.3821,,0,315,315,29,1,B, , , , ,space,1500,1.5,Elizabeth,001,2021-08-19_16h26.44.999,natb3,2021.2.3,Win32,60.0060006,60dfa3267e2f2d74059493ad,611e07ecdcc96256ae8d5b80,611e781c9d2973e37de6b33c,
,,,,,,,0,316,316,33,1,X, , , , ,,1500,1.5,Elizabeth,001,2021-08-19_16h26.44.999,natb3,2021.2.3,Win32,60.0060006,60dfa3267e2f2d74059493ad,611e07ecdcc96256ae8d5b80,611e781c9d2973e37de6b33c,
,,,,space,0.3772,,0,317,317,142,1,N, , , , ,space,2500,2.5,Elizabeth,001,2021-08-19_16h26.44.999,natb3,2021.2.3,Win32,60.0060006,60dfa3267e2f2d74059493ad,611e07ecdcc96256ae8d5b80,611e781c9d2973e37de6b33c,
,,,,space,0.3527,,0,318,318,42,1,U, , , , ,space,1500,1.5,Elizabeth,001,2021-08-19_16h26.44.999,natb3,2021.2.3,Win32,60.0060006,60dfa3267e2f2d74059493ad,611e07ecdcc96256ae8d5b80,611e781c9d2973e37de6b33c,
,,,,space,0.393,,0,319,319,216,1,R, , , , ,space,1500,1.5,Elizabeth,001,2021-08-19_16h26.44.999,natb3,2021.2.3,Win32,60.0060006,60dfa3267e2f2d74059493ad,611e07ecdcc96256ae8d5b80,611e781c9d2973e37de6b33c,
,,,,space,0.3734,,0,320,320,280,1,L, , , , ,space,1500,1.5,Elizabeth,001,2021-08-19_16h26.44.999,natb3,2021.2.3,Win32,60.0060006,60dfa3267e2f2d74059493ad,611e07ecdcc96256ae8d5b80,611e781c9d2973e37de6b33c,
,,,,,,,0,321,321,287,1,X, ,2, ,9,,2000,2,Elizabeth,001,2021-08-19_16h26.44.999,natb3,2021.2.3,Win32,60.0060006,60dfa3267e2f2d74059493ad,611e07ecdcc96256ae8d5b80,611e781c9d2973e37de6b33c,
,,,,space,0.4183,,0,322,322,110,1,I, , , , ,space,1500,1.5,Elizabeth,001,2021-08-19_16h26.44.999,natb3,2021.2.3,Win32,60.0060006,60dfa3267e2f2d74059493ad,611e07ecdcc96256ae8d5b80,611e781c9d2973e37de6b33c,
,,,,space,0.4121,,0,323,323,106,1,T, , , , ,space,1500,1.5,Elizabeth,001,2021-08-19_16h26.44.999,natb3,2021.2.3,Win32,60.0060006,60dfa3267e2f2d74059493ad,611e07ecdcc96256ae8d5b80,611e781c9d2973e37de6b33c,
,,,,space,0.388,,0,324,324,87,1,H, , , , ,space,1500,1.5,Elizabeth,001,2021-08-19_16h26.44.999,natb3,2021.2.3,Win32,60.0060006,60dfa3267e2f2d74059493ad,611e07ecdcc96256ae8d5b80,611e781c9d2973e37de6b33c,
,,,,,,,0,325,325,31,1,X, , , , ,,1500,1.5,Elizabeth,001,2021-08-19_16h26.44.999,natb3,2021.2.3,Win32,60.0060006,60dfa3267e2f2d74059493ad,611e07ecdcc96256ae8d5b80,611e781c9d2973e37de6b33c,
,,,,space,0.3739,,0,326,326,77,1,O, , , , ,space,2000,2,Elizabeth,001,2021-08-19_16h26.44.999,natb3,2021.2.3,Win32,60.0060006,60dfa3267e2f2d74059493ad,611e07ecdcc96256ae8d5b80,611e781c9d2973e37de6b33c,
,,,,space,0.414,,0,327,327,103,1,W, , , , ,space,2000,2,Elizabeth,001,2021-08-19_16h26.44.999,natb3,2021.2.3,Win32,60.0060006,60dfa3267e2f2d74059493ad,611e07ecdcc96256ae8d5b80,611e781c9d2973e37de6b33c,
,,,,space,0.4636,,0,328,328,32,1,M, , , , ,space,1500,1.5,Elizabeth,001,2021-08-19_16h26.44.999,natb3,2021.2.3,Win32,60.0060006,60dfa3267e2f2d74059493ad,611e07ecdcc96256ae8d5b80,611e781c9d2973e37de6b33c,
,,,,space,0.4644,,0,329,329,240,1,F, , , , ,space,2500,2.5,Elizabeth,001,2021-08-19_16h26.44.999,natb3,2021.2.3,Win32,60.0060006,60dfa3267e2f2d74059493ad,611e07ecdcc96256ae8d5b80,611e781c9d2973e37de6b33c,
,,,,space,0.5337,,0,330,330,17,1,F, , , , ,space,2500,2.5,Elizabeth,001,2021-08-19_16h26.44.999,natb3,2021.2.3,Win32,60.0060006,60dfa3267e2f2d74059493ad,611e07ecdcc96256ae8d5b80,611e781c9d2973e37de6b33c,
,,,,space,0.4395,,0,331,331,16,1,D, , , , ,space,1500,1.5,Elizabeth,001,2021-08-19_16h26.44.999,natb3,2021.2.3,Win32,60.0060006,60dfa3267e2f2d74059493ad,611e07ecdcc96256ae8d5b80,611e781c9d2973e37de6b33c,
,,,,,,,0,332,332,291,1,X, , , , ,,2000,2,Elizabeth,001,2021-08-19_16h26.44.999,natb3,2021.2.3,Win32,60.0060006,60dfa3267e2f2d74059493ad,611e07ecdcc96256ae8d5b80,611e781c9d2973e37de6b33c,
,,,,space,0.398,,0,333,333,58,1,L, , , , ,space,2000,2,Elizabeth,001,2021-08-19_16h26.44.999,natb3,2021.2.3,Win32,60.0060006,60dfa3267e2f2d74059493ad,611e07ecdcc96256ae8d5b80,611e781c9d2973e37de6b33c,
,,,,space,0.4868,,0,334,334,224,1,W, , , , ,space,1500,1.5,Elizabeth,001,2021-08-19_16h26.44.999,natb3,2021.2.3,Win32,60.0060006,60dfa3267e2f2d74059493ad,611e07ecdcc96256ae8d5b80,611e781c9d2973e37de6b33c,
,,,,space,0.3984,,0,335,335,327,1,E, , , , ,space,1500,1.5,Elizabeth,001,2021-08-19_16h26.44.999,natb3,2021.2.3,Win32,60.0060006,60dfa3267e2f2d74059493ad,611e07ecdcc96256ae8d5b80,611e781c9d2973e37de6b33c,
