key_resp_2.keys,key_resp_2.rt,key_resp_3.keys,key_resp_3.rt,key_resp.keys,key_resp_4.keys,trials.thisRepN,trials.thisTrialN,trials.thisN,trials.thisIndex,trials.ran,stimulus,distractor1,distractor2,distractor3,distractor4,CorrAns,isi_duration,isi_dur_in_seconds,participant,session,date,expName,psychopyVersion,OS,frameRate,PROLIFIC_PID,STUDY_ID,SESSION_ID,key_resp.rt,key_resp_4.rt
return,46.03,space,10.546,,,0,0,0,283,1,C, , , , ,space,1500,1.5,Holly,001,2021-08-19_16h37.09,natb3,2021.2.3,MacIntel,58.82352941,611d3faadea138dec9219e19,611e07ecdcc96256ae8d5b80,611e7a1fce581730c9653309,,
,,,,space,,0,1,1,223,1,Q, , , , ,space,2000,2,Holly,001,2021-08-19_16h37.09,natb3,2021.2.3,MacIntel,58.82352941,611d3faadea138dec9219e19,611e07ecdcc96256ae8d5b80,611e7a1fce581730c9653309,0.239,
,,,,,,0,2,2,213,1,X, , , , ,,2500,2.5,Holly,001,2021-08-19_16h37.09,natb3,2021.2.3,MacIntel,58.82352941,611d3faadea138dec9219e19,611e07ecdcc96256ae8d5b80,611e7a1fce581730c9653309,,
,,,,space,,0,3,3,93,1,X,5, ,7, ,,2500,2.5,Holly,001,2021-08-19_16h37.09,natb3,2021.2.3,MacIntel,58.82352941,611d3faadea138dec9219e19,611e07ecdcc96256ae8d5b80,611e7a1fce581730c9653309,0.273,
,,,,space,,0,4,4,80,1,A, , , , ,space,2000,2,Holly,001,2021-08-19_16h37.09,natb3,2021.2.3,MacIntel,58.82352941,611d3faadea138dec9219e19,611e07ecdcc96256ae8d5b80,611e7a1fce581730c9653309,0.544,
,,,,space,,0,5,5,261,1,T, , , , ,space,2000,2,Holly,001,2021-08-19_16h37.09,natb3,2021.2.3,MacIntel,58.82352941,611d3faadea138dec9219e19,611e07ecdcc96256ae8d5b80,611e7a1fce581730c9653309,0.649,
,,,,,,0,6,6,162,1,X,1,6, ,2,,1500,1.5,Holly,001,2021-08-19_16h37.09,natb3,2021.2.3,MacIntel,58.82352941,611d3faadea138dec9219e19,611e07ecdcc96256ae8d5b80,611e7a1fce581730c9653309,,
,,,,space,,0,7,7,117,1,T, , , , ,space,2500,2.5,Holly,001,2021-08-19_16h37.09,natb3,2021.2.3,MacIntel,58.82352941,611d3faadea138dec9219e19,611e07ecdcc96256ae8d5b80,611e7a1fce581730c9653309,0.555,
,,,,space,,0,8,8,103,1,W, , , , ,space,2000,2,Holly,001,2021-08-19_16h37.09,natb3,2021.2.3,MacIntel,58.82352941,611d3faadea138dec9219e19,611e07ecdcc96256ae8d5b80,611e7a1fce581730c9653309,0.611,
,,,,space,,0,9,9,14,1,S, , , , ,space,2500,2.5,Holly,001,2021-08-19_16h37.09,natb3,2021.2.3,MacIntel,58.82352941,611d3faadea138dec9219e19,611e07ecdcc96256ae8d5b80,611e7a1fce581730c9653309,0.478,
,,,,space,,0,10,10,46,1,X, , , , ,,2000,2,Holly,001,2021-08-19_16h37.09,natb3,2021.2.3,MacIntel,58.82352941,611d3faadea138dec9219e19,611e07ecdcc96256ae8d5b80,611e7a1fce581730c9653309,0.324,
,,,,space,,0,11,11,77,1,O, , , , ,space,2000,2,Holly,001,2021-08-19_16h37.09,natb3,2021.2.3,MacIntel,58.82352941,611d3faadea138dec9219e19,611e07ecdcc96256ae8d5b80,611e7a1fce581730c9653309,0.518,
,,,,space,,0,12,12,224,1,W, , , , ,space,1500,1.5,Holly,001,2021-08-19_16h37.09,natb3,2021.2.3,MacIntel,58.82352941,611d3faadea138dec9219e19,611e07ecdcc96256ae8d5b80,611e7a1fce581730c9653309,0.568,
,,,,space,,0,13,13,67,1,Q, , , , ,space,2000,2,Holly,001,2021-08-19_16h37.09,natb3,2021.2.3,MacIntel,58.82352941,611d3faadea138dec9219e19,611e07ecdcc96256ae8d5b80,611e7a1fce581730c9653309,0.488,
,,,,space,,0,14,14,326,1,W, , , , ,space,2000,2,Holly,001,2021-08-19_16h37.09,natb3,2021.2.3,MacIntel,58.82352941,611d3faadea138dec9219e19,611e07ecdcc96256ae8d5b80,611e7a1fce581730c9653309,0.466,
,,,,,,0,15,15,145,1,X, , , , ,,2000,2,Holly,001,2021-08-19_16h37.09,natb3,2021.2.3,MacIntel,58.82352941,611d3faadea138dec9219e19,611e07ecdcc96256ae8d5b80,611e7a1fce581730c9653309,,
,,,,space,,0,16,16,238,1,D, , , , ,space,1500,1.5,Holly,001,2021-08-19_16h37.09,natb3,2021.2.3,MacIntel,58.82352941,611d3faadea138dec9219e19,611e07ecdcc96256ae8d5b80,611e7a1fce581730c9653309,0.467,
,,,,space,,0,17,17,144,1,Q, , , , ,space,2500,2.5,Holly,001,2021-08-19_16h37.09,natb3,2021.2.3,MacIntel,58.82352941,611d3faadea138dec9219e19,611e07ecdcc96256ae8d5b80,611e7a1fce581730c9653309,0.662,
,,,,,,0,18,18,153,1,X,4,7, ,6,,2000,2,Holly,001,2021-08-19_16h37.09,natb3,2021.2.3,MacIntel,58.82352941,611d3faadea138dec9219e19,611e07ecdcc96256ae8d5b80,611e7a1fce581730c9653309,,
,,,,space,,0,19,19,71,1,R, , , , ,space,2500,2.5,Holly,001,2021-08-19_16h37.09,natb3,2021.2.3,MacIntel,58.82352941,611d3faadea138dec9219e19,611e07ecdcc96256ae8d5b80,611e7a1fce581730c9653309,0.592,
,,,,space,,0,20,20,262,1,Y, , , , ,space,2500,2.5,Holly,001,2021-08-19_16h37.09,natb3,2021.2.3,MacIntel,58.82352941,611d3faadea138dec9219e19,611e07ecdcc96256ae8d5b80,611e7a1fce581730c9653309,0.523,
,,,,,,0,21,21,96,1,X, , , , ,,1500,1.5,Holly,001,2021-08-19_16h37.09,natb3,2021.2.3,MacIntel,58.82352941,611d3faadea138dec9219e19,611e07ecdcc96256ae8d5b80,611e7a1fce581730c9653309,,
,,,,space,,0,22,22,49,1,S, , , , ,space,1500,1.5,Holly,001,2021-08-19_16h37.09,natb3,2021.2.3,MacIntel,58.82352941,611d3faadea138dec9219e19,611e07ecdcc96256ae8d5b80,611e7a1fce581730c9653309,0.427,
,,,,space,,0,23,23,317,1,C, , , , ,space,2000,2,Holly,001,2021-08-19_16h37.09,natb3,2021.2.3,MacIntel,58.82352941,611d3faadea138dec9219e19,611e07ecdcc96256ae8d5b80,611e7a1fce581730c9653309,0.446,
,,,,space,,0,24,24,163,1,G, , , , ,space,2500,2.5,Holly,001,2021-08-19_16h37.09,natb3,2021.2.3,MacIntel,58.82352941,611d3faadea138dec9219e19,611e07ecdcc96256ae8d5b80,611e7a1fce581730c9653309,0.379,
,,,,space,,0,25,25,246,1,L, , , , ,space,2500,2.5,Holly,001,2021-08-19_16h37.09,natb3,2021.2.3,MacIntel,58.82352941,611d3faadea138dec9219e19,611e07ecdcc96256ae8d5b80,611e7a1fce581730c9653309,0.412,
,,,,,,0,26,26,179,1,X, ,9, ,2,,1500,1.5,Holly,001,2021-08-19_16h37.09,natb3,2021.2.3,MacIntel,58.82352941,611d3faadea138dec9219e19,611e07ecdcc96256ae8d5b80,611e7a1fce581730c9653309,,
,,,,,,0,27,27,195,1,X, , , , ,,1500,1.5,Holly,001,2021-08-19_16h37.09,natb3,2021.2.3,MacIntel,58.82352941,611d3faadea138dec9219e19,611e07ecdcc96256ae8d5b80,611e7a1fce581730c9653309,,
,,,,space,,0,28,28,214,1,W, , , , ,space,2000,2,Holly,001,2021-08-19_16h37.09,natb3,2021.2.3,MacIntel,58.82352941,611d3faadea138dec9219e19,611e07ecdcc96256ae8d5b80,611e7a1fce581730c9653309,0.346,
,,,,,,0,29,29,203,1,X, , , , ,,2500,2.5,Holly,001,2021-08-19_16h37.09,natb3,2021.2.3,MacIntel,58.82352941,611d3faadea138dec9219e19,611e07ecdcc96256ae8d5b80,611e7a1fce581730c9653309,,
,,,,space,,0,30,30,306,1,D, , , , ,space,2000,2,Holly,001,2021-08-19_16h37.09,natb3,2021.2.3,MacIntel,58.82352941,611d3faadea138dec9219e19,611e07ecdcc96256ae8d5b80,611e7a1fce581730c9653309,0.346,
,,,,,,0,31,31,102,1,X, ,6, , ,,1500,1.5,Holly,001,2021-08-19_16h37.09,natb3,2021.2.3,MacIntel,58.82352941,611d3faadea138dec9219e19,611e07ecdcc96256ae8d5b80,611e7a1fce581730c9653309,,
,,,,,,0,32,32,7,1,X, , , , ,,1500,1.5,Holly,001,2021-08-19_16h37.09,natb3,2021.2.3,MacIntel,58.82352941,611d3faadea138dec9219e19,611e07ecdcc96256ae8d5b80,611e7a1fce581730c9653309,,
,,,,space,,0,33,33,50,1,D, , , , ,space,1500,1.5,Holly,001,2021-08-19_16h37.09,natb3,2021.2.3,MacIntel,58.82352941,611d3faadea138dec9219e19,611e07ecdcc96256ae8d5b80,611e7a1fce581730c9653309,0.441,
,,,,space,,0,34,34,258,1,E, , , , ,space,1500,1.5,Holly,001,2021-08-19_16h37.09,natb3,2021.2.3,MacIntel,58.82352941,611d3faadea138dec9219e19,611e07ecdcc96256ae8d5b80,611e7a1fce581730c9653309,0.381,
,,,,space,,0,35,35,56,1,J, , , , ,space,1500,1.5,Holly,001,2021-08-19_16h37.09,natb3,2021.2.3,MacIntel,58.82352941,611d3faadea138dec9219e19,611e07ecdcc96256ae8d5b80,611e7a1fce581730c9653309,0.479,
,,,,space,,0,36,36,335,1,P,,,,,space,1500,1.5,Holly,001,2021-08-19_16h37.09,natb3,2021.2.3,MacIntel,58.82352941,611d3faadea138dec9219e19,611e07ecdcc96256ae8d5b80,611e7a1fce581730c9653309,0.699,
,,,,space,,0,37,37,146,1,W, , , , ,space,1500,1.5,Holly,001,2021-08-19_16h37.09,natb3,2021.2.3,MacIntel,58.82352941,611d3faadea138dec9219e19,611e07ecdcc96256ae8d5b80,611e7a1fce581730c9653309,0.548,
,,,,space,,0,38,38,323,1,M, , , , ,space,2500,2.5,Holly,001,2021-08-19_16h37.09,natb3,2021.2.3,MacIntel,58.82352941,611d3faadea138dec9219e19,611e07ecdcc96256ae8d5b80,611e7a1fce581730c9653309,0.654,
,,,,space,,0,39,39,272,1,D, , , , ,space,2000,2,Holly,001,2021-08-19_16h37.09,natb3,2021.2.3,MacIntel,58.82352941,611d3faadea138dec9219e19,611e07ecdcc96256ae8d5b80,611e7a1fce581730c9653309,0.546,
,,,,,,0,40,40,33,1,X, , , , ,,1500,1.5,Holly,001,2021-08-19_16h37.09,natb3,2021.2.3,MacIntel,58.82352941,611d3faadea138dec9219e19,611e07ecdcc96256ae8d5b80,611e7a1fce581730c9653309,,
,,,,space,,0,41,41,199,1,J, , , , ,space,2500,2.5,Holly,001,2021-08-19_16h37.09,natb3,2021.2.3,MacIntel,58.82352941,611d3faadea138dec9219e19,611e07ecdcc96256ae8d5b80,611e7a1fce581730c9653309,0.422,
,,,,space,,0,42,42,79,1,P, , , , ,space,2000,2,Holly,001,2021-08-19_16h37.09,natb3,2021.2.3,MacIntel,58.82352941,611d3faadea138dec9219e19,611e07ecdcc96256ae8d5b80,611e7a1fce581730c9653309,0.537,
,,,,space,,0,43,43,298,1,I, , , , ,space,2000,2,Holly,001,2021-08-19_16h37.09,natb3,2021.2.3,MacIntel,58.82352941,611d3faadea138dec9219e19,611e07ecdcc96256ae8d5b80,611e7a1fce581730c9653309,0.374,
,,,,space,,0,44,44,41,1,Y, , , , ,space,2500,2.5,Holly,001,2021-08-19_16h37.09,natb3,2021.2.3,MacIntel,58.82352941,611d3faadea138dec9219e19,611e07ecdcc96256ae8d5b80,611e7a1fce581730c9653309,0.349,
,,,,,,0,45,45,299,1,X, , , , ,,2500,2.5,Holly,001,2021-08-19_16h37.09,natb3,2021.2.3,MacIntel,58.82352941,611d3faadea138dec9219e19,611e07ecdcc96256ae8d5b80,611e7a1fce581730c9653309,,
,,,,space,,0,46,46,84,1,X, , , , ,,2000,2,Holly,001,2021-08-19_16h37.09,natb3,2021.2.3,MacIntel,58.82352941,611d3faadea138dec9219e19,611e07ecdcc96256ae8d5b80,611e7a1fce581730c9653309,0.321,
,,,,,,0,47,47,43,1,X, ,6, ,2,,2500,2.5,Holly,001,2021-08-19_16h37.09,natb3,2021.2.3,MacIntel,58.82352941,611d3faadea138dec9219e19,611e07ecdcc96256ae8d5b80,611e7a1fce581730c9653309,,
,,,,space,,0,48,48,216,1,R, , , , ,space,1500,1.5,Holly,001,2021-08-19_16h37.09,natb3,2021.2.3,MacIntel,58.82352941,611d3faadea138dec9219e19,611e07ecdcc96256ae8d5b80,611e7a1fce581730c9653309,0.383,
,,,,space,,0,49,49,185,1,Y, , , , ,space,2500,2.5,Holly,001,2021-08-19_16h37.09,natb3,2021.2.3,MacIntel,58.82352941,611d3faadea138dec9219e19,611e07ecdcc96256ae8d5b80,611e7a1fce581730c9653309,0.419,
,,,,space,,0,50,50,221,1,I, , , , ,space,2500,2.5,Holly,001,2021-08-19_16h37.09,natb3,2021.2.3,MacIntel,58.82352941,611d3faadea138dec9219e19,611e07ecdcc96256ae8d5b80,611e7a1fce581730c9653309,0.447,
,,,,space,,0,51,51,62,1,V, , , , ,space,1500,1.5,Holly,001,2021-08-19_16h37.09,natb3,2021.2.3,MacIntel,58.82352941,611d3faadea138dec9219e19,611e07ecdcc96256ae8d5b80,611e7a1fce581730c9653309,0.796,
,,,,space,,0,52,52,30,1,N, , , , ,space,2500,2.5,Holly,001,2021-08-19_16h37.09,natb3,2021.2.3,MacIntel,58.82352941,611d3faadea138dec9219e19,611e07ecdcc96256ae8d5b80,611e7a1fce581730c9653309,0.395,
,,,,space,,0,53,53,137,1,C, , , , ,space,2500,2.5,Holly,001,2021-08-19_16h37.09,natb3,2021.2.3,MacIntel,58.82352941,611d3faadea138dec9219e19,611e07ecdcc96256ae8d5b80,611e7a1fce581730c9653309,0.473,
,,,,space,,0,54,54,127,1,S, , , , ,space,2500,2.5,Holly,001,2021-08-19_16h37.09,natb3,2021.2.3,MacIntel,58.82352941,611d3faadea138dec9219e19,611e07ecdcc96256ae8d5b80,611e7a1fce581730c9653309,0.593,
,,,,,,0,55,55,12,1,X, , , , ,,1500,1.5,Holly,001,2021-08-19_16h37.09,natb3,2021.2.3,MacIntel,58.82352941,611d3faadea138dec9219e19,611e07ecdcc96256ae8d5b80,611e7a1fce581730c9653309,,
,,,,space,,0,56,56,241,1,G, , , , ,space,2500,2.5,Holly,001,2021-08-19_16h37.09,natb3,2021.2.3,MacIntel,58.82352941,611d3faadea138dec9219e19,611e07ecdcc96256ae8d5b80,611e7a1fce581730c9653309,0.478,
,,,,space,,0,57,57,19,1,G, , , , ,space,1500,1.5,Holly,001,2021-08-19_16h37.09,natb3,2021.2.3,MacIntel,58.82352941,611d3faadea138dec9219e19,611e07ecdcc96256ae8d5b80,611e7a1fce581730c9653309,0.438,
,,,,,,0,58,58,311,1,X,1,2,7,3,,2500,2.5,Holly,001,2021-08-19_16h37.09,natb3,2021.2.3,MacIntel,58.82352941,611d3faadea138dec9219e19,611e07ecdcc96256ae8d5b80,611e7a1fce581730c9653309,,
,,,,space,,0,59,59,308,1,G, , , , ,space,1500,1.5,Holly,001,2021-08-19_16h37.09,natb3,2021.2.3,MacIntel,58.82352941,611d3faadea138dec9219e19,611e07ecdcc96256ae8d5b80,611e7a1fce581730c9653309,0.473,
,,,,space,,0,60,60,279,1,K, , , , ,space,2500,2.5,Holly,001,2021-08-19_16h37.09,natb3,2021.2.3,MacIntel,58.82352941,611d3faadea138dec9219e19,611e07ecdcc96256ae8d5b80,611e7a1fce581730c9653309,0.637,
,,,,space,,0,61,61,151,1,Y, , , , ,space,2500,2.5,Holly,001,2021-08-19_16h37.09,natb3,2021.2.3,MacIntel,58.82352941,611d3faadea138dec9219e19,611e07ecdcc96256ae8d5b80,611e7a1fce581730c9653309,0.401,
,,,,space,,0,62,62,303,1,A, , , , ,space,2000,2,Holly,001,2021-08-19_16h37.09,natb3,2021.2.3,MacIntel,58.82352941,611d3faadea138dec9219e19,611e07ecdcc96256ae8d5b80,611e7a1fce581730c9653309,0.415,
,,,,space,,0,63,63,85,1,F, , , , ,space,2500,2.5,Holly,001,2021-08-19_16h37.09,natb3,2021.2.3,MacIntel,58.82352941,611d3faadea138dec9219e19,611e07ecdcc96256ae8d5b80,611e7a1fce581730c9653309,0.386,
,,,,space,,0,64,64,188,1,I, , , , ,space,2500,2.5,Holly,001,2021-08-19_16h37.09,natb3,2021.2.3,MacIntel,58.82352941,611d3faadea138dec9219e19,611e07ecdcc96256ae8d5b80,611e7a1fce581730c9653309,0.355,
,,,,,,0,65,65,322,1,X, , ,1,6,,2000,2,Holly,001,2021-08-19_16h37.09,natb3,2021.2.3,MacIntel,58.82352941,611d3faadea138dec9219e19,611e07ecdcc96256ae8d5b80,611e7a1fce581730c9653309,,
,,,,space,,0,66,66,108,1,Y, , , , ,space,2500,2.5,Holly,001,2021-08-19_16h37.09,natb3,2021.2.3,MacIntel,58.82352941,611d3faadea138dec9219e19,611e07ecdcc96256ae8d5b80,611e7a1fce581730c9653309,0.367,
,,,,space,,0,67,67,226,1,R, , , , ,space,2000,2,Holly,001,2021-08-19_16h37.09,natb3,2021.2.3,MacIntel,58.82352941,611d3faadea138dec9219e19,611e07ecdcc96256ae8d5b80,611e7a1fce581730c9653309,0.389,
,,,,space,,0,68,68,126,1,A, , , , ,space,2500,2.5,Holly,001,2021-08-19_16h37.09,natb3,2021.2.3,MacIntel,58.82352941,611d3faadea138dec9219e19,611e07ecdcc96256ae8d5b80,611e7a1fce581730c9653309,0.362,
,,,,space,,0,69,69,204,1,Z, , , , ,space,2000,2,Holly,001,2021-08-19_16h37.09,natb3,2021.2.3,MacIntel,58.82352941,611d3faadea138dec9219e19,611e07ecdcc96256ae8d5b80,611e7a1fce581730c9653309,0.371,
,,,,space,,0,70,70,70,1,E, , , , ,space,2500,2.5,Holly,001,2021-08-19_16h37.09,natb3,2021.2.3,MacIntel,58.82352941,611d3faadea138dec9219e19,611e07ecdcc96256ae8d5b80,611e7a1fce581730c9653309,0.39,
,,,,space,,0,71,71,176,1,N, , , , ,space,1500,1.5,Holly,001,2021-08-19_16h37.09,natb3,2021.2.3,MacIntel,58.82352941,611d3faadea138dec9219e19,611e07ecdcc96256ae8d5b80,611e7a1fce581730c9653309,0.564,
,,,,space,,0,72,72,37,1,E, , , , ,space,2500,2.5,Holly,001,2021-08-19_16h37.09,natb3,2021.2.3,MacIntel,58.82352941,611d3faadea138dec9219e19,611e07ecdcc96256ae8d5b80,611e7a1fce581730c9653309,0.339,
,,,,space,,0,73,73,264,1,U, , , , ,space,2000,2,Holly,001,2021-08-19_16h37.09,natb3,2021.2.3,MacIntel,58.82352941,611d3faadea138dec9219e19,611e07ecdcc96256ae8d5b80,611e7a1fce581730c9653309,0.386,
,,,,space,,0,74,74,64,1,N, , , , ,space,2000,2,Holly,001,2021-08-19_16h37.09,natb3,2021.2.3,MacIntel,58.82352941,611d3faadea138dec9219e19,611e07ecdcc96256ae8d5b80,611e7a1fce581730c9653309,0.652,
,,,,space,,0,75,75,307,1,F, , , , ,space,2500,2.5,Holly,001,2021-08-19_16h37.09,natb3,2021.2.3,MacIntel,58.82352941,611d3faadea138dec9219e19,611e07ecdcc96256ae8d5b80,611e7a1fce581730c9653309,0.388,
,,,,space,,0,76,76,75,1,U, , , , ,space,1500,1.5,Holly,001,2021-08-19_16h37.09,natb3,2021.2.3,MacIntel,58.82352941,611d3faadea138dec9219e19,611e07ecdcc96256ae8d5b80,611e7a1fce581730c9653309,0.354,
,,,,space,,0,77,77,269,1,A, , , , ,space,2500,2.5,Holly,001,2021-08-19_16h37.09,natb3,2021.2.3,MacIntel,58.82352941,611d3faadea138dec9219e19,611e07ecdcc96256ae8d5b80,611e7a1fce581730c9653309,0.354,
,,,,space,,0,78,78,107,1,X,9,3, ,2,,2000,2,Holly,001,2021-08-19_16h37.09,natb3,2021.2.3,MacIntel,58.82352941,611d3faadea138dec9219e19,611e07ecdcc96256ae8d5b80,611e7a1fce581730c9653309,0.397,
,,,,space,,0,79,79,286,1,N, , , , ,space,1500,1.5,Holly,001,2021-08-19_16h37.09,natb3,2021.2.3,MacIntel,58.82352941,611d3faadea138dec9219e19,611e07ecdcc96256ae8d5b80,611e7a1fce581730c9653309,0.636,
,,,,space,,0,80,80,63,1,B, , , , ,space,2000,2,Holly,001,2021-08-19_16h37.09,natb3,2021.2.3,MacIntel,58.82352941,611d3faadea138dec9219e19,611e07ecdcc96256ae8d5b80,611e7a1fce581730c9653309,0.39,
,,,,space,,0,81,81,167,1,K, , , , ,space,1500,1.5,Holly,001,2021-08-19_16h37.09,natb3,2021.2.3,MacIntel,58.82352941,611d3faadea138dec9219e19,611e07ecdcc96256ae8d5b80,611e7a1fce581730c9653309,0.331,
,,,,,,0,82,82,175,1,X,7, ,4,2,,1500,1.5,Holly,001,2021-08-19_16h37.09,natb3,2021.2.3,MacIntel,58.82352941,611d3faadea138dec9219e19,611e07ecdcc96256ae8d5b80,611e7a1fce581730c9653309,,
,,,,space,,0,83,83,186,1,U, , , , ,space,2500,2.5,Holly,001,2021-08-19_16h37.09,natb3,2021.2.3,MacIntel,58.82352941,611d3faadea138dec9219e19,611e07ecdcc96256ae8d5b80,611e7a1fce581730c9653309,0.408,
,,,,space,,0,84,84,155,1,O, , , , ,space,1500,1.5,Holly,001,2021-08-19_16h37.09,natb3,2021.2.3,MacIntel,58.82352941,611d3faadea138dec9219e19,611e07ecdcc96256ae8d5b80,611e7a1fce581730c9653309,0.484,
,,,,space,,0,85,85,225,1,E, , , , ,space,2000,2,Holly,001,2021-08-19_16h37.09,natb3,2021.2.3,MacIntel,58.82352941,611d3faadea138dec9219e19,611e07ecdcc96256ae8d5b80,611e7a1fce581730c9653309,0.399,
,,,,space,,0,86,86,157,1,A, , , , ,space,2500,2.5,Holly,001,2021-08-19_16h37.09,natb3,2021.2.3,MacIntel,58.82352941,611d3faadea138dec9219e19,611e07ecdcc96256ae8d5b80,611e7a1fce581730c9653309,0.355,
,,,,space,,0,87,87,242,1,H, , , , ,space,2500,2.5,Holly,001,2021-08-19_16h37.09,natb3,2021.2.3,MacIntel,58.82352941,611d3faadea138dec9219e19,611e07ecdcc96256ae8d5b80,611e7a1fce581730c9653309,0.366,
,,,,,,0,88,88,325,1,X, , , , ,,2500,2.5,Holly,001,2021-08-19_16h37.09,natb3,2021.2.3,MacIntel,58.82352941,611d3faadea138dec9219e19,611e07ecdcc96256ae8d5b80,611e7a1fce581730c9653309,,
,,,,space,,0,89,89,3,1,R, , , , ,space,2000,2,Holly,001,2021-08-19_16h37.09,natb3,2021.2.3,MacIntel,58.82352941,611d3faadea138dec9219e19,611e07ecdcc96256ae8d5b80,611e7a1fce581730c9653309,0.381,
,,,,space,,0,90,90,161,1,F, , , , ,space,1500,1.5,Holly,001,2021-08-19_16h37.09,natb3,2021.2.3,MacIntel,58.82352941,611d3faadea138dec9219e19,611e07ecdcc96256ae8d5b80,611e7a1fce581730c9653309,0.429,
,,,,space,,0,91,91,125,1,X, , , , ,,2000,2,Holly,001,2021-08-19_16h37.09,natb3,2021.2.3,MacIntel,58.82352941,611d3faadea138dec9219e19,611e07ecdcc96256ae8d5b80,611e7a1fce581730c9653309,0.349,
,,,,space,,0,92,92,220,1,U, , , , ,space,2500,2.5,Holly,001,2021-08-19_16h37.09,natb3,2021.2.3,MacIntel,58.82352941,611d3faadea138dec9219e19,611e07ecdcc96256ae8d5b80,611e7a1fce581730c9653309,0.357,
,,,,space,,0,93,93,334,1,O, , , , ,space,1500,1.5,Holly,001,2021-08-19_16h37.09,natb3,2021.2.3,MacIntel,58.82352941,611d3faadea138dec9219e19,611e07ecdcc96256ae8d5b80,611e7a1fce581730c9653309,0.363,
,,,,space,,0,94,94,181,1,E, , , , ,space,1500,1.5,Holly,001,2021-08-19_16h37.09,natb3,2021.2.3,MacIntel,58.82352941,611d3faadea138dec9219e19,611e07ecdcc96256ae8d5b80,611e7a1fce581730c9653309,0.386,
,,,,space,,0,95,95,275,1,G, , , , ,space,1500,1.5,Holly,001,2021-08-19_16h37.09,natb3,2021.2.3,MacIntel,58.82352941,611d3faadea138dec9219e19,611e07ecdcc96256ae8d5b80,611e7a1fce581730c9653309,0.447,
,,,,space,,0,96,96,253,1,N, , , , ,space,2500,2.5,Holly,001,2021-08-19_16h37.09,natb3,2021.2.3,MacIntel,58.82352941,611d3faadea138dec9219e19,611e07ecdcc96256ae8d5b80,611e7a1fce581730c9653309,0.472,
,,,,space,,0,97,97,228,1,Y, , , , ,space,2000,2,Holly,001,2021-08-19_16h37.09,natb3,2021.2.3,MacIntel,58.82352941,611d3faadea138dec9219e19,611e07ecdcc96256ae8d5b80,611e7a1fce581730c9653309,0.448,
,,,,space,,0,98,98,319,1,V, , , , ,space,2000,2,Holly,001,2021-08-19_16h37.09,natb3,2021.2.3,MacIntel,58.82352941,611d3faadea138dec9219e19,611e07ecdcc96256ae8d5b80,611e7a1fce581730c9653309,0.392,
,,,,space,,0,99,99,6,1,Y, , , , ,space,2500,2.5,Holly,001,2021-08-19_16h37.09,natb3,2021.2.3,MacIntel,58.82352941,611d3faadea138dec9219e19,611e07ecdcc96256ae8d5b80,611e7a1fce581730c9653309,0.463,
,,,,,,0,100,100,268,1,X,6, ,3, ,,2500,2.5,Holly,001,2021-08-19_16h37.09,natb3,2021.2.3,MacIntel,58.82352941,611d3faadea138dec9219e19,611e07ecdcc96256ae8d5b80,611e7a1fce581730c9653309,,
,,,,space,,0,101,101,160,1,D, , , , ,space,1500,1.5,Holly,001,2021-08-19_16h37.09,natb3,2021.2.3,MacIntel,58.82352941,611d3faadea138dec9219e19,611e07ecdcc96256ae8d5b80,611e7a1fce581730c9653309,0.353,
,,,,space,,0,102,102,285,1,B, , , , ,space,1500,1.5,Holly,001,2021-08-19_16h37.09,natb3,2021.2.3,MacIntel,58.82352941,611d3faadea138dec9219e19,611e07ecdcc96256ae8d5b80,611e7a1fce581730c9653309,0.422,
,,,,space,,0,103,103,304,1,S, , , , ,space,2000,2,Holly,001,2021-08-19_16h37.09,natb3,2021.2.3,MacIntel,58.82352941,611d3faadea138dec9219e19,611e07ecdcc96256ae8d5b80,611e7a1fce581730c9653309,0.412,
,,,,,,0,104,104,329,1,X,3,4, ,2,,2500,2.5,Holly,001,2021-08-19_16h37.09,natb3,2021.2.3,MacIntel,58.82352941,611d3faadea138dec9219e19,611e07ecdcc96256ae8d5b80,611e7a1fce581730c9653309,,
,,,,space,,0,105,105,92,1,Z, , , , ,space,1500,1.5,Holly,001,2021-08-19_16h37.09,natb3,2021.2.3,MacIntel,58.82352941,611d3faadea138dec9219e19,611e07ecdcc96256ae8d5b80,611e7a1fce581730c9653309,0.391,
,,,,space,,0,106,106,99,1,N, , , , ,space,2500,2.5,Holly,001,2021-08-19_16h37.09,natb3,2021.2.3,MacIntel,58.82352941,611d3faadea138dec9219e19,611e07ecdcc96256ae8d5b80,611e7a1fce581730c9653309,0.652,
,,,,space,,0,107,107,38,1,R, , , , ,space,2500,2.5,Holly,001,2021-08-19_16h37.09,natb3,2021.2.3,MacIntel,58.82352941,611d3faadea138dec9219e19,611e07ecdcc96256ae8d5b80,611e7a1fce581730c9653309,0.416,
,,,,,,0,108,108,141,1,X,1, ,4,6,,1500,1.5,Holly,001,2021-08-19_16h37.09,natb3,2021.2.3,MacIntel,58.82352941,611d3faadea138dec9219e19,611e07ecdcc96256ae8d5b80,611e7a1fce581730c9653309,,
,,,,space,,0,109,109,194,1,D, , , , ,space,2000,2,Holly,001,2021-08-19_16h37.09,natb3,2021.2.3,MacIntel,58.82352941,611d3faadea138dec9219e19,611e07ecdcc96256ae8d5b80,611e7a1fce581730c9653309,0.526,
,,,,space,,0,110,110,83,1,D, , , , ,space,2000,2,Holly,001,2021-08-19_16h37.09,natb3,2021.2.3,MacIntel,58.82352941,611d3faadea138dec9219e19,611e07ecdcc96256ae8d5b80,611e7a1fce581730c9653309,0.4,
,,,,space,,0,111,111,172,1,C, , , , ,space,1500,1.5,Holly,001,2021-08-19_16h37.09,natb3,2021.2.3,MacIntel,58.82352941,611d3faadea138dec9219e19,611e07ecdcc96256ae8d5b80,611e7a1fce581730c9653309,0.433,
,,,,space,,0,112,112,297,1,U, , , , ,space,2000,2,Holly,001,2021-08-19_16h37.09,natb3,2021.2.3,MacIntel,58.82352941,611d3faadea138dec9219e19,611e07ecdcc96256ae8d5b80,611e7a1fce581730c9653309,0.72,
,,,,space,,0,113,113,289,1,Q, , , , ,space,2000,2,Holly,001,2021-08-19_16h37.09,natb3,2021.2.3,MacIntel,58.82352941,611d3faadea138dec9219e19,611e07ecdcc96256ae8d5b80,611e7a1fce581730c9653309,0.419,
,,,,space,,0,114,114,250,1,V, , , , ,space,2000,2,Holly,001,2021-08-19_16h37.09,natb3,2021.2.3,MacIntel,58.82352941,611d3faadea138dec9219e19,611e07ecdcc96256ae8d5b80,611e7a1fce581730c9653309,0.416,
,,,,space,,0,115,115,164,1,H, , , , ,space,2500,2.5,Holly,001,2021-08-19_16h37.09,natb3,2021.2.3,MacIntel,58.82352941,611d3faadea138dec9219e19,611e07ecdcc96256ae8d5b80,611e7a1fce581730c9653309,0.547,
,,,,space,,0,116,116,211,1,X, , , , ,,2500,2.5,Holly,001,2021-08-19_16h37.09,natb3,2021.2.3,MacIntel,58.82352941,611d3faadea138dec9219e19,611e07ecdcc96256ae8d5b80,611e7a1fce581730c9653309,0.39,
,,,,space,,0,117,117,154,1,I, , , , ,space,2500,2.5,Holly,001,2021-08-19_16h37.09,natb3,2021.2.3,MacIntel,58.82352941,611d3faadea138dec9219e19,611e07ecdcc96256ae8d5b80,611e7a1fce581730c9653309,0.482,
,,,,space,,0,118,118,290,1,W, , , , ,space,1500,1.5,Holly,001,2021-08-19_16h37.09,natb3,2021.2.3,MacIntel,58.82352941,611d3faadea138dec9219e19,611e07ecdcc96256ae8d5b80,611e7a1fce581730c9653309,0.422,
,,,,space,,0,119,119,312,1,K, , , , ,space,2000,2,Holly,001,2021-08-19_16h37.09,natb3,2021.2.3,MacIntel,58.82352941,611d3faadea138dec9219e19,611e07ecdcc96256ae8d5b80,611e7a1fce581730c9653309,0.475,
,,,,space,,0,120,120,328,1,R, , , , ,space,1500,1.5,Holly,001,2021-08-19_16h37.09,natb3,2021.2.3,MacIntel,58.82352941,611d3faadea138dec9219e19,611e07ecdcc96256ae8d5b80,611e7a1fce581730c9653309,0.558,
,,,,space,,0,121,121,59,1,Z, , , , ,space,2000,2,Holly,001,2021-08-19_16h37.09,natb3,2021.2.3,MacIntel,58.82352941,611d3faadea138dec9219e19,611e07ecdcc96256ae8d5b80,611e7a1fce581730c9653309,0.415,
,,,,space,,0,122,122,180,1,W, , , , ,space,2000,2,Holly,001,2021-08-19_16h37.09,natb3,2021.2.3,MacIntel,58.82352941,611d3faadea138dec9219e19,611e07ecdcc96256ae8d5b80,611e7a1fce581730c9653309,0.422,
,,,,space,,0,123,123,57,1,K, , , , ,space,2500,2.5,Holly,001,2021-08-19_16h37.09,natb3,2021.2.3,MacIntel,58.82352941,611d3faadea138dec9219e19,611e07ecdcc96256ae8d5b80,611e7a1fce581730c9653309,0.407,
,,,,space,,0,124,124,244,1,J, , , , ,space,1500,1.5,Holly,001,2021-08-19_16h37.09,natb3,2021.2.3,MacIntel,58.82352941,611d3faadea138dec9219e19,611e07ecdcc96256ae8d5b80,611e7a1fce581730c9653309,0.374,
,,,,space,,0,125,125,276,1,H, , , , ,space,2000,2,Holly,001,2021-08-19_16h37.09,natb3,2021.2.3,MacIntel,58.82352941,611d3faadea138dec9219e19,611e07ecdcc96256ae8d5b80,611e7a1fce581730c9653309,0.386,
,,,,space,,0,126,126,143,1,M, , , , ,space,2500,2.5,Holly,001,2021-08-19_16h37.09,natb3,2021.2.3,MacIntel,58.82352941,611d3faadea138dec9219e19,611e07ecdcc96256ae8d5b80,611e7a1fce581730c9653309,0.39,
,,,,,,0,127,127,51,1,X,7,5,8, ,,1500,1.5,Holly,001,2021-08-19_16h37.09,natb3,2021.2.3,MacIntel,58.82352941,611d3faadea138dec9219e19,611e07ecdcc96256ae8d5b80,611e7a1fce581730c9653309,,
,,,,space,,0,128,128,198,1,H, , , , ,space,2500,2.5,Holly,001,2021-08-19_16h37.09,natb3,2021.2.3,MacIntel,58.82352941,611d3faadea138dec9219e19,611e07ecdcc96256ae8d5b80,611e7a1fce581730c9653309,0.517,
,,,,,,0,129,129,173,1,V, , , , ,space,1500,1.5,Holly,001,2021-08-19_16h37.09,natb3,2021.2.3,MacIntel,58.82352941,611d3faadea138dec9219e19,611e07ecdcc96256ae8d5b80,611e7a1fce581730c9653309,,
,,,,space,,0,130,130,222,1,O, , , , ,space,2000,2,Holly,001,2021-08-19_16h37.09,natb3,2021.2.3,MacIntel,58.82352941,611d3faadea138dec9219e19,611e07ecdcc96256ae8d5b80,611e7a1fce581730c9653309,0.39,
,,,,space,,0,131,131,296,1,Y, , , , ,space,2500,2.5,Holly,001,2021-08-19_16h37.09,natb3,2021.2.3,MacIntel,58.82352941,611d3faadea138dec9219e19,611e07ecdcc96256ae8d5b80,611e7a1fce581730c9653309,0.429,
,,,,space,,0,132,132,150,1,T, , , , ,space,2500,2.5,Holly,001,2021-08-19_16h37.09,natb3,2021.2.3,MacIntel,58.82352941,611d3faadea138dec9219e19,611e07ecdcc96256ae8d5b80,611e7a1fce581730c9653309,0.432,
,,,,space,,0,133,133,309,1,H, , , , ,space,2500,2.5,Holly,001,2021-08-19_16h37.09,natb3,2021.2.3,MacIntel,58.82352941,611d3faadea138dec9219e19,611e07ecdcc96256ae8d5b80,611e7a1fce581730c9653309,0.456,
,,,,space,,0,134,134,205,1,C, , , , ,space,2000,2,Holly,001,2021-08-19_16h37.09,natb3,2021.2.3,MacIntel,58.82352941,611d3faadea138dec9219e19,611e07ecdcc96256ae8d5b80,611e7a1fce581730c9653309,0.503,
,,,,space,,0,135,135,95,1,V, , , , ,space,1500,1.5,Holly,001,2021-08-19_16h37.09,natb3,2021.2.3,MacIntel,58.82352941,611d3faadea138dec9219e19,611e07ecdcc96256ae8d5b80,611e7a1fce581730c9653309,0.598,
,,,,space,,0,136,136,320,1,B, , , , ,space,1500,1.5,Holly,001,2021-08-19_16h37.09,natb3,2021.2.3,MacIntel,58.82352941,611d3faadea138dec9219e19,611e07ecdcc96256ae8d5b80,611e7a1fce581730c9653309,0.496,
,,,,space,,0,137,137,189,1,O, , , , ,space,1500,1.5,Holly,001,2021-08-19_16h37.09,natb3,2021.2.3,MacIntel,58.82352941,611d3faadea138dec9219e19,611e07ecdcc96256ae8d5b80,611e7a1fce581730c9653309,0.414,
,,,,space,,0,138,138,131,1,G, , , , ,space,1500,1.5,Holly,001,2021-08-19_16h37.09,natb3,2021.2.3,MacIntel,58.82352941,611d3faadea138dec9219e19,611e07ecdcc96256ae8d5b80,611e7a1fce581730c9653309,0.397,
,,,,,,0,139,139,287,1,X, ,2, ,9,,2000,2,Holly,001,2021-08-19_16h37.09,natb3,2021.2.3,MacIntel,58.82352941,611d3faadea138dec9219e19,611e07ecdcc96256ae8d5b80,611e7a1fce581730c9653309,,
,,,,space,,0,140,140,170,1,Z, , , , ,space,2000,2,Holly,001,2021-08-19_16h37.09,natb3,2021.2.3,MacIntel,58.82352941,611d3faadea138dec9219e19,611e07ecdcc96256ae8d5b80,611e7a1fce581730c9653309,0.478,
,,,,space,,0,141,141,13,1,A, , , , ,space,2000,2,Holly,001,2021-08-19_16h37.09,natb3,2021.2.3,MacIntel,58.82352941,611d3faadea138dec9219e19,611e07ecdcc96256ae8d5b80,611e7a1fce581730c9653309,0.59,
,,,,space,,0,142,142,156,1,P, , , , ,space,1500,1.5,Holly,001,2021-08-19_16h37.09,natb3,2021.2.3,MacIntel,58.82352941,611d3faadea138dec9219e19,611e07ecdcc96256ae8d5b80,611e7a1fce581730c9653309,0.404,
,,,,space,,0,143,143,332,1,U, , , , ,space,2000,2,Holly,001,2021-08-19_16h37.09,natb3,2021.2.3,MacIntel,58.82352941,611d3faadea138dec9219e19,611e07ecdcc96256ae8d5b80,611e7a1fce581730c9653309,0.441,
,,,,space,,0,144,144,147,1,E, , , , ,space,2000,2,Holly,001,2021-08-19_16h37.09,natb3,2021.2.3,MacIntel,58.82352941,611d3faadea138dec9219e19,611e07ecdcc96256ae8d5b80,611e7a1fce581730c9653309,0.456,
,,,,space,,0,145,145,104,1,E, , , , ,space,2000,2,Holly,001,2021-08-19_16h37.09,natb3,2021.2.3,MacIntel,58.82352941,611d3faadea138dec9219e19,611e07ecdcc96256ae8d5b80,611e7a1fce581730c9653309,0.41,
,,,,,,0,146,146,229,1,X,8, ,2,6,,2500,2.5,Holly,001,2021-08-19_16h37.09,natb3,2021.2.3,MacIntel,58.82352941,611d3faadea138dec9219e19,611e07ecdcc96256ae8d5b80,611e7a1fce581730c9653309,,
,,,,space,,0,147,147,270,1,S, , , , ,space,1500,1.5,Holly,001,2021-08-19_16h37.09,natb3,2021.2.3,MacIntel,58.82352941,611d3faadea138dec9219e19,611e07ecdcc96256ae8d5b80,611e7a1fce581730c9653309,0.439,
,,,,space,,0,148,148,280,1,L, , , , ,space,1500,1.5,Holly,001,2021-08-19_16h37.09,natb3,2021.2.3,MacIntel,58.82352941,611d3faadea138dec9219e19,611e07ecdcc96256ae8d5b80,611e7a1fce581730c9653309,0.474,
,,,,space,,0,149,149,128,1,D, , , , ,space,2500,2.5,Holly,001,2021-08-19_16h37.09,natb3,2021.2.3,MacIntel,58.82352941,611d3faadea138dec9219e19,611e07ecdcc96256ae8d5b80,611e7a1fce581730c9653309,0.413,
,,,,,,0,150,150,259,1,X,8, , ,3,,2500,2.5,Holly,001,2021-08-19_16h37.09,natb3,2021.2.3,MacIntel,58.82352941,611d3faadea138dec9219e19,611e07ecdcc96256ae8d5b80,611e7a1fce581730c9653309,,
,,,,,,0,151,151,18,1,X, ,2,5,8,,2500,2.5,Holly,001,2021-08-19_16h37.09,natb3,2021.2.3,MacIntel,58.82352941,611d3faadea138dec9219e19,611e07ecdcc96256ae8d5b80,611e7a1fce581730c9653309,,
,,,,space,,0,152,152,105,1,R, , , , ,space,2500,2.5,Holly,001,2021-08-19_16h37.09,natb3,2021.2.3,MacIntel,58.82352941,611d3faadea138dec9219e19,611e07ecdcc96256ae8d5b80,611e7a1fce581730c9653309,0.441,
,,,,space,,0,153,153,193,1,S, , , , ,space,2500,2.5,Holly,001,2021-08-19_16h37.09,natb3,2021.2.3,MacIntel,58.82352941,611d3faadea138dec9219e19,611e07ecdcc96256ae8d5b80,611e7a1fce581730c9653309,0.421,
,,,,space,,0,154,154,227,1,T, , , , ,space,1500,1.5,Holly,001,2021-08-19_16h37.09,natb3,2021.2.3,MacIntel,58.82352941,611d3faadea138dec9219e19,611e07ecdcc96256ae8d5b80,611e7a1fce581730c9653309,0.408,
,,,,space,,0,155,155,110,1,I, , , , ,space,1500,1.5,Holly,001,2021-08-19_16h37.09,natb3,2021.2.3,MacIntel,58.82352941,611d3faadea138dec9219e19,611e07ecdcc96256ae8d5b80,611e7a1fce581730c9653309,0.464,
,,,,space,,0,156,156,42,1,U, , , , ,space,1500,1.5,Holly,001,2021-08-19_16h37.09,natb3,2021.2.3,MacIntel,58.82352941,611d3faadea138dec9219e19,611e07ecdcc96256ae8d5b80,611e7a1fce581730c9653309,0.448,
,,,,,,0,157,157,233,1,X, ,2, ,5,,1500,1.5,Holly,001,2021-08-19_16h37.09,natb3,2021.2.3,MacIntel,58.82352941,611d3faadea138dec9219e19,611e07ecdcc96256ae8d5b80,611e7a1fce581730c9653309,,
,,,,,,0,158,158,168,1,X, , , , ,,2500,2.5,Holly,001,2021-08-19_16h37.09,natb3,2021.2.3,MacIntel,58.82352941,611d3faadea138dec9219e19,611e07ecdcc96256ae8d5b80,611e7a1fce581730c9653309,,
,,,,space,,0,159,159,152,1,U, , , , ,space,2000,2,Holly,001,2021-08-19_16h37.09,natb3,2021.2.3,MacIntel,58.82352941,611d3faadea138dec9219e19,611e07ecdcc96256ae8d5b80,611e7a1fce581730c9653309,0.437,
,,,,space,,0,160,160,212,1,Q, , , , ,space,2500,2.5,Holly,001,2021-08-19_16h37.09,natb3,2021.2.3,MacIntel,58.82352941,611d3faadea138dec9219e19,611e07ecdcc96256ae8d5b80,611e7a1fce581730c9653309,0.488,
,,,,space,,0,161,161,48,1,A, , , , ,space,2500,2.5,Holly,001,2021-08-19_16h37.09,natb3,2021.2.3,MacIntel,58.82352941,611d3faadea138dec9219e19,611e07ecdcc96256ae8d5b80,611e7a1fce581730c9653309,0.565,
,,,,,,0,162,162,315,1,X, , , , ,,2500,2.5,Holly,001,2021-08-19_16h37.09,natb3,2021.2.3,MacIntel,58.82352941,611d3faadea138dec9219e19,611e07ecdcc96256ae8d5b80,611e7a1fce581730c9653309,,
,,,,,,0,163,163,54,1,X, , , , ,,2000,2,Holly,001,2021-08-19_16h37.09,natb3,2021.2.3,MacIntel,58.82352941,611d3faadea138dec9219e19,611e07ecdcc96256ae8d5b80,611e7a1fce581730c9653309,,
,,,,space,,0,164,164,210,1,M, , , , ,space,1500,1.5,Holly,001,2021-08-19_16h37.09,natb3,2021.2.3,MacIntel,58.82352941,611d3faadea138dec9219e19,611e07ecdcc96256ae8d5b80,611e7a1fce581730c9653309,0.423,
,,,,space,,0,165,165,73,1,Y, , , , ,space,2000,2,Holly,001,2021-08-19_16h37.09,natb3,2021.2.3,MacIntel,58.82352941,611d3faadea138dec9219e19,611e07ecdcc96256ae8d5b80,611e7a1fce581730c9653309,0.417,
,,,,space,,0,166,166,31,1,X, , , , ,,1500,1.5,Holly,001,2021-08-19_16h37.09,natb3,2021.2.3,MacIntel,58.82352941,611d3faadea138dec9219e19,611e07ecdcc96256ae8d5b80,611e7a1fce581730c9653309,0.363,
,,,,space,space,0,167,167,254,1,M, , , , ,space,1500,1.5,Holly,001,2021-08-19_16h37.09,natb3,2021.2.3,MacIntel,58.82352941,611d3faadea138dec9219e19,611e07ecdcc96256ae8d5b80,611e7a1fce581730c9653309,0.668,6.817
,,,,,,0,168,168,277,1,X,8,5, ,2,,2000,2,Holly,001,2021-08-19_16h37.09,natb3,2021.2.3,MacIntel,58.82352941,611d3faadea138dec9219e19,611e07ecdcc96256ae8d5b80,611e7a1fce581730c9653309,,
,,,,,,0,169,169,305,1,X, , , , ,,1500,1.5,Holly,001,2021-08-19_16h37.09,natb3,2021.2.3,MacIntel,58.82352941,611d3faadea138dec9219e19,611e07ecdcc96256ae8d5b80,611e7a1fce581730c9653309,,
,,,,space,,0,170,170,72,1,T, , , , ,space,1500,1.5,Holly,001,2021-08-19_16h37.09,natb3,2021.2.3,MacIntel,58.82352941,611d3faadea138dec9219e19,611e07ecdcc96256ae8d5b80,611e7a1fce581730c9653309,0.689,
,,,,space,,0,171,171,217,1,T, , , , ,space,2500,2.5,Holly,001,2021-08-19_16h37.09,natb3,2021.2.3,MacIntel,58.82352941,611d3faadea138dec9219e19,611e07ecdcc96256ae8d5b80,611e7a1fce581730c9653309,0.79,
,,,,space,,0,172,172,44,1,I, , , , ,space,2500,2.5,Holly,001,2021-08-19_16h37.09,natb3,2021.2.3,MacIntel,58.82352941,611d3faadea138dec9219e19,611e07ecdcc96256ae8d5b80,611e7a1fce581730c9653309,0.498,
,,,,space,,0,173,173,36,1,W, , , , ,space,2000,2,Holly,001,2021-08-19_16h37.09,natb3,2021.2.3,MacIntel,58.82352941,611d3faadea138dec9219e19,611e07ecdcc96256ae8d5b80,611e7a1fce581730c9653309,0.432,
,,,,space,,0,174,174,109,1,U, , , , ,space,1500,1.5,Holly,001,2021-08-19_16h37.09,natb3,2021.2.3,MacIntel,58.82352941,611d3faadea138dec9219e19,611e07ecdcc96256ae8d5b80,611e7a1fce581730c9653309,0.599,
,,,,space,,0,175,175,86,1,G, , , , ,space,2000,2,Holly,001,2021-08-19_16h37.09,natb3,2021.2.3,MacIntel,58.82352941,611d3faadea138dec9219e19,611e07ecdcc96256ae8d5b80,611e7a1fce581730c9653309,0.455,
,,,,space,,0,176,176,53,1,G, , , , ,space,2500,2.5,Holly,001,2021-08-19_16h37.09,natb3,2021.2.3,MacIntel,58.82352941,611d3faadea138dec9219e19,611e07ecdcc96256ae8d5b80,611e7a1fce581730c9653309,0.418,
,,,,space,,0,177,177,209,1,N, , , , ,space,2000,2,Holly,001,2021-08-19_16h37.09,natb3,2021.2.3,MacIntel,58.82352941,611d3faadea138dec9219e19,611e07ecdcc96256ae8d5b80,611e7a1fce581730c9653309,0.391,
,,,,space,,0,178,178,192,1,A, , , , ,space,2000,2,Holly,001,2021-08-19_16h37.09,natb3,2021.2.3,MacIntel,58.82352941,611d3faadea138dec9219e19,611e07ecdcc96256ae8d5b80,611e7a1fce581730c9653309,0.323,
,,,,space,,0,179,179,232,1,O, , , , ,space,2500,2.5,Holly,001,2021-08-19_16h37.09,natb3,2021.2.3,MacIntel,58.82352941,611d3faadea138dec9219e19,611e07ecdcc96256ae8d5b80,611e7a1fce581730c9653309,0.386,
,,,,space,,0,180,180,100,1,M, , , , ,space,2000,2,Holly,001,2021-08-19_16h37.09,natb3,2021.2.3,MacIntel,58.82352941,611d3faadea138dec9219e19,611e07ecdcc96256ae8d5b80,611e7a1fce581730c9653309,0.617,
,,,,space,,0,181,181,124,1,P, , , , ,space,2000,2,Holly,001,2021-08-19_16h37.09,natb3,2021.2.3,MacIntel,58.82352941,611d3faadea138dec9219e19,611e07ecdcc96256ae8d5b80,611e7a1fce581730c9653309,0.331,
,,,,space,,0,182,182,215,1,E, , , , ,space,2500,2.5,Holly,001,2021-08-19_16h37.09,natb3,2021.2.3,MacIntel,58.82352941,611d3faadea138dec9219e19,611e07ecdcc96256ae8d5b80,611e7a1fce581730c9653309,0.382,
,,,,space,,0,183,183,106,1,T, , , , ,space,1500,1.5,Holly,001,2021-08-19_16h37.09,natb3,2021.2.3,MacIntel,58.82352941,611d3faadea138dec9219e19,611e07ecdcc96256ae8d5b80,611e7a1fce581730c9653309,0.365,
,,,,space,,0,184,184,123,1,O, , , , ,space,1500,1.5,Holly,001,2021-08-19_16h37.09,natb3,2021.2.3,MacIntel,58.82352941,611d3faadea138dec9219e19,611e07ecdcc96256ae8d5b80,611e7a1fce581730c9653309,0.4,
,,,,space,,0,185,185,52,1,F, , , , ,space,1500,1.5,Holly,001,2021-08-19_16h37.09,natb3,2021.2.3,MacIntel,58.82352941,611d3faadea138dec9219e19,611e07ecdcc96256ae8d5b80,611e7a1fce581730c9653309,0.457,
,,,,space,,0,186,186,17,1,F, , , , ,space,2500,2.5,Holly,001,2021-08-19_16h37.09,natb3,2021.2.3,MacIntel,58.82352941,611d3faadea138dec9219e19,611e07ecdcc96256ae8d5b80,611e7a1fce581730c9653309,0.401,
,,,,space,,0,187,187,135,1,K, , , , ,space,1500,1.5,Holly,001,2021-08-19_16h37.09,natb3,2021.2.3,MacIntel,58.82352941,611d3faadea138dec9219e19,611e07ecdcc96256ae8d5b80,611e7a1fce581730c9653309,0.419,
,,,,space,,0,188,188,165,1,J, , , , ,space,2500,2.5,Holly,001,2021-08-19_16h37.09,natb3,2021.2.3,MacIntel,58.82352941,611d3faadea138dec9219e19,611e07ecdcc96256ae8d5b80,611e7a1fce581730c9653309,0.338,
,,,,,,0,189,189,295,1,X,8,7,5, ,,2500,2.5,Holly,001,2021-08-19_16h37.09,natb3,2021.2.3,MacIntel,58.82352941,611d3faadea138dec9219e19,611e07ecdcc96256ae8d5b80,611e7a1fce581730c9653309,,
,,,,space,,0,190,190,243,1,X, , , , ,,2500,2.5,Holly,001,2021-08-19_16h37.09,natb3,2021.2.3,MacIntel,58.82352941,611d3faadea138dec9219e19,611e07ecdcc96256ae8d5b80,611e7a1fce581730c9653309,0.364,
,,,,space,,0,191,191,132,1,H, , , , ,space,2500,2.5,Holly,001,2021-08-19_16h37.09,natb3,2021.2.3,MacIntel,58.82352941,611d3faadea138dec9219e19,611e07ecdcc96256ae8d5b80,611e7a1fce581730c9653309,0.452,
,,,,,,0,192,192,74,1,X, ,4,3,2,,1500,1.5,Holly,001,2021-08-19_16h37.09,natb3,2021.2.3,MacIntel,58.82352941,611d3faadea138dec9219e19,611e07ecdcc96256ae8d5b80,611e7a1fce581730c9653309,,
,,,,space,,0,193,193,178,1,Q, , , , ,space,1500,1.5,Holly,001,2021-08-19_16h37.09,natb3,2021.2.3,MacIntel,58.82352941,611d3faadea138dec9219e19,611e07ecdcc96256ae8d5b80,611e7a1fce581730c9653309,0.436,
,,,,space,,0,194,194,314,1,L, , , , ,space,1500,1.5,Holly,001,2021-08-19_16h37.09,natb3,2021.2.3,MacIntel,58.82352941,611d3faadea138dec9219e19,611e07ecdcc96256ae8d5b80,611e7a1fce581730c9653309,0.446,
,,,,space,,0,195,195,28,1,V, , , , ,space,1500,1.5,Holly,001,2021-08-19_16h37.09,natb3,2021.2.3,MacIntel,58.82352941,611d3faadea138dec9219e19,611e07ecdcc96256ae8d5b80,611e7a1fce581730c9653309,0.456,
,,,,space,,0,196,196,321,1,N, , , , ,space,2000,2,Holly,001,2021-08-19_16h37.09,natb3,2021.2.3,MacIntel,58.82352941,611d3faadea138dec9219e19,611e07ecdcc96256ae8d5b80,611e7a1fce581730c9653309,0.383,
,,,,space,,0,197,197,247,1,Z, , , , ,space,1500,1.5,Holly,001,2021-08-19_16h37.09,natb3,2021.2.3,MacIntel,58.82352941,611d3faadea138dec9219e19,611e07ecdcc96256ae8d5b80,611e7a1fce581730c9653309,0.571,
,,,,,,0,198,198,291,1,X, , , , ,,2000,2,Holly,001,2021-08-19_16h37.09,natb3,2021.2.3,MacIntel,58.82352941,611d3faadea138dec9219e19,611e07ecdcc96256ae8d5b80,611e7a1fce581730c9653309,,
,,,,space,,0,199,199,40,1,T, , , , ,space,1500,1.5,Holly,001,2021-08-19_16h37.09,natb3,2021.2.3,MacIntel,58.82352941,611d3faadea138dec9219e19,611e07ecdcc96256ae8d5b80,611e7a1fce581730c9653309,0.454,
,,,,space,,0,200,200,2,1,E, , , , ,space,2500,2.5,Holly,001,2021-08-19_16h37.09,natb3,2021.2.3,MacIntel,58.82352941,611d3faadea138dec9219e19,611e07ecdcc96256ae8d5b80,611e7a1fce581730c9653309,0.387,
,,,,,,0,201,201,271,1,X, , , , ,,2500,2.5,Holly,001,2021-08-19_16h37.09,natb3,2021.2.3,MacIntel,58.82352941,611d3faadea138dec9219e19,611e07ecdcc96256ae8d5b80,611e7a1fce581730c9653309,,
,,,,,,0,202,202,89,1,X,3, , , ,,2000,2,Holly,001,2021-08-19_16h37.09,natb3,2021.2.3,MacIntel,58.82352941,611d3faadea138dec9219e19,611e07ecdcc96256ae8d5b80,611e7a1fce581730c9653309,,
,,,,space,,0,203,203,206,1,V, , , , ,space,2000,2,Holly,001,2021-08-19_16h37.09,natb3,2021.2.3,MacIntel,58.82352941,611d3faadea138dec9219e19,611e07ecdcc96256ae8d5b80,611e7a1fce581730c9653309,0.445,
,,,,space,,0,204,204,169,1,L, , , , ,space,2500,2.5,Holly,001,2021-08-19_16h37.09,natb3,2021.2.3,MacIntel,58.82352941,611d3faadea138dec9219e19,611e07ecdcc96256ae8d5b80,611e7a1fce581730c9653309,0.582,
,,,,space,,0,205,205,0,1,Q, , , , ,space,1500,1.5,Holly,001,2021-08-19_16h37.09,natb3,2021.2.3,MacIntel,58.82352941,611d3faadea138dec9219e19,611e07ecdcc96256ae8d5b80,611e7a1fce581730c9653309,0.382,
,,,,,,0,206,206,116,1,X, , , , ,,2000,2,Holly,001,2021-08-19_16h37.09,natb3,2021.2.3,MacIntel,58.82352941,611d3faadea138dec9219e19,611e07ecdcc96256ae8d5b80,611e7a1fce581730c9653309,,
,,,,,,0,207,207,82,1,X,4,6,1,7,,2000,2,Holly,001,2021-08-19_16h37.09,natb3,2021.2.3,MacIntel,58.82352941,611d3faadea138dec9219e19,611e07ecdcc96256ae8d5b80,611e7a1fce581730c9653309,,
,,,,space,,0,208,208,256,1,Q, , , , ,space,2000,2,Holly,001,2021-08-19_16h37.09,natb3,2021.2.3,MacIntel,58.82352941,611d3faadea138dec9219e19,611e07ecdcc96256ae8d5b80,611e7a1fce581730c9653309,0.466,
,,,,space,,0,209,209,184,1,T, , , , ,space,2000,2,Holly,001,2021-08-19_16h37.09,natb3,2021.2.3,MacIntel,58.82352941,611d3faadea138dec9219e19,611e07ecdcc96256ae8d5b80,611e7a1fce581730c9653309,0.45,
,,,,,,0,210,210,248,1,X, ,1,5, ,,1500,1.5,Holly,001,2021-08-19_16h37.09,natb3,2021.2.3,MacIntel,58.82352941,611d3faadea138dec9219e19,611e07ecdcc96256ae8d5b80,611e7a1fce581730c9653309,,
,,,,space,,0,211,211,11,1,P, , , , ,space,2500,2.5,Holly,001,2021-08-19_16h37.09,natb3,2021.2.3,MacIntel,58.82352941,611d3faadea138dec9219e19,611e07ecdcc96256ae8d5b80,611e7a1fce581730c9653309,0.398,
,,,,,,0,212,212,138,1,X,8,5, ,3,,2000,2,Holly,001,2021-08-19_16h37.09,natb3,2021.2.3,MacIntel,58.82352941,611d3faadea138dec9219e19,611e07ecdcc96256ae8d5b80,611e7a1fce581730c9653309,,
,,,,,,0,213,213,15,1,X, , , , ,,1500,1.5,Holly,001,2021-08-19_16h37.09,natb3,2021.2.3,MacIntel,58.82352941,611d3faadea138dec9219e19,611e07ecdcc96256ae8d5b80,611e7a1fce581730c9653309,,
,,,,space,,0,214,214,235,1,A, , , , ,space,1500,1.5,Holly,001,2021-08-19_16h37.09,natb3,2021.2.3,MacIntel,58.82352941,611d3faadea138dec9219e19,611e07ecdcc96256ae8d5b80,611e7a1fce581730c9653309,0.424,
,,,,space,,0,215,215,201,1,K, , , , ,space,1500,1.5,Holly,001,2021-08-19_16h37.09,natb3,2021.2.3,MacIntel,58.82352941,611d3faadea138dec9219e19,611e07ecdcc96256ae8d5b80,611e7a1fce581730c9653309,0.532,
,,,,,,0,216,216,118,1,X, , , , ,,2000,2,Holly,001,2021-08-19_16h37.09,natb3,2021.2.3,MacIntel,58.82352941,611d3faadea138dec9219e19,611e07ecdcc96256ae8d5b80,611e7a1fce581730c9653309,,
,,,,space,,0,217,217,87,1,H, , , , ,space,1500,1.5,Holly,001,2021-08-19_16h37.09,natb3,2021.2.3,MacIntel,58.82352941,611d3faadea138dec9219e19,611e07ecdcc96256ae8d5b80,611e7a1fce581730c9653309,0.448,
,,,,space,,0,218,218,331,1,Y, , , , ,space,2500,2.5,Holly,001,2021-08-19_16h37.09,natb3,2021.2.3,MacIntel,58.82352941,611d3faadea138dec9219e19,611e07ecdcc96256ae8d5b80,611e7a1fce581730c9653309,0.517,
,,,,space,,0,219,219,9,1,I, , , , ,space,1500,1.5,Holly,001,2021-08-19_16h37.09,natb3,2021.2.3,MacIntel,58.82352941,611d3faadea138dec9219e19,611e07ecdcc96256ae8d5b80,611e7a1fce581730c9653309,0.634,
,,,,space,,0,220,220,22,1,K, , , , ,space,2000,2,Holly,001,2021-08-19_16h37.09,natb3,2021.2.3,MacIntel,58.82352941,611d3faadea138dec9219e19,611e07ecdcc96256ae8d5b80,611e7a1fce581730c9653309,0.521,
,,,,space,,0,221,221,284,1,V, , , , ,space,2500,2.5,Holly,001,2021-08-19_16h37.09,natb3,2021.2.3,MacIntel,58.82352941,611d3faadea138dec9219e19,611e07ecdcc96256ae8d5b80,611e7a1fce581730c9653309,0.351,
,,,,,,0,222,222,282,1,X, , , , ,,2500,2.5,Holly,001,2021-08-19_16h37.09,natb3,2021.2.3,MacIntel,58.82352941,611d3faadea138dec9219e19,611e07ecdcc96256ae8d5b80,611e7a1fce581730c9653309,,
,,,,space,,0,223,223,29,1,B, , , , ,space,1500,1.5,Holly,001,2021-08-19_16h37.09,natb3,2021.2.3,MacIntel,58.82352941,611d3faadea138dec9219e19,611e07ecdcc96256ae8d5b80,611e7a1fce581730c9653309,0.365,
,,,,,,0,224,224,191,1,X,1, ,3,4,,2500,2.5,Holly,001,2021-08-19_16h37.09,natb3,2021.2.3,MacIntel,58.82352941,611d3faadea138dec9219e19,611e07ecdcc96256ae8d5b80,611e7a1fce581730c9653309,,
,,,,,,0,225,225,252,1,X,3, ,6,9,,2000,2,Holly,001,2021-08-19_16h37.09,natb3,2021.2.3,MacIntel,58.82352941,611d3faadea138dec9219e19,611e07ecdcc96256ae8d5b80,611e7a1fce581730c9653309,,
,,,,,,0,226,226,302,1,X, , , , ,,2000,2,Holly,001,2021-08-19_16h37.09,natb3,2021.2.3,MacIntel,58.82352941,611d3faadea138dec9219e19,611e07ecdcc96256ae8d5b80,611e7a1fce581730c9653309,,
,,,,space,,0,227,227,237,1,S, , , , ,space,1500,1.5,Holly,001,2021-08-19_16h37.09,natb3,2021.2.3,MacIntel,58.82352941,611d3faadea138dec9219e19,611e07ecdcc96256ae8d5b80,611e7a1fce581730c9653309,0.454,
,,,,space,,0,228,228,114,1,E, , , , ,space,2000,2,Holly,001,2021-08-19_16h37.09,natb3,2021.2.3,MacIntel,58.82352941,611d3faadea138dec9219e19,611e07ecdcc96256ae8d5b80,611e7a1fce581730c9653309,0.923,
,,,,space,,0,229,229,190,1,P, , , , ,space,2000,2,Holly,001,2021-08-19_16h37.09,natb3,2021.2.3,MacIntel,58.82352941,611d3faadea138dec9219e19,611e07ecdcc96256ae8d5b80,611e7a1fce581730c9653309,0.451,
,,,,space,,0,230,230,293,1,R, , , , ,space,2500,2.5,Holly,001,2021-08-19_16h37.09,natb3,2021.2.3,MacIntel,58.82352941,611d3faadea138dec9219e19,611e07ecdcc96256ae8d5b80,611e7a1fce581730c9653309,0.462,
,,,,space,,0,231,231,333,1,I, , , , ,space,1500,1.5,Holly,001,2021-08-19_16h37.09,natb3,2021.2.3,MacIntel,58.82352941,611d3faadea138dec9219e19,611e07ecdcc96256ae8d5b80,611e7a1fce581730c9653309,0.482,
,,,,,,0,232,232,122,1,X,1, , ,8,,1500,1.5,Holly,001,2021-08-19_16h37.09,natb3,2021.2.3,MacIntel,58.82352941,611d3faadea138dec9219e19,611e07ecdcc96256ae8d5b80,611e7a1fce581730c9653309,,
,,,,space,,0,233,233,327,1,E, , , , ,space,1500,1.5,Holly,001,2021-08-19_16h37.09,natb3,2021.2.3,MacIntel,58.82352941,611d3faadea138dec9219e19,611e07ecdcc96256ae8d5b80,611e7a1fce581730c9653309,0.478,
,,,,,,0,234,234,182,1,X, , , , ,,1500,1.5,Holly,001,2021-08-19_16h37.09,natb3,2021.2.3,MacIntel,58.82352941,611d3faadea138dec9219e19,611e07ecdcc96256ae8d5b80,611e7a1fce581730c9653309,,
,,,,space,,0,235,235,174,1,B, , , , ,space,2500,2.5,Holly,001,2021-08-19_16h37.09,natb3,2021.2.3,MacIntel,58.82352941,611d3faadea138dec9219e19,611e07ecdcc96256ae8d5b80,611e7a1fce581730c9653309,0.406,
,,,,space,,0,236,236,8,1,U, , , , ,space,1500,1.5,Holly,001,2021-08-19_16h37.09,natb3,2021.2.3,MacIntel,58.82352941,611d3faadea138dec9219e19,611e07ecdcc96256ae8d5b80,611e7a1fce581730c9653309,0.447,
,,,,,,0,237,237,149,1,R, , , , ,space,2000,2,Holly,001,2021-08-19_16h37.09,natb3,2021.2.3,MacIntel,58.82352941,611d3faadea138dec9219e19,611e07ecdcc96256ae8d5b80,611e7a1fce581730c9653309,,
,,,,,,0,238,238,158,1,X, , , , ,,1500,1.5,Holly,001,2021-08-19_16h37.09,natb3,2021.2.3,MacIntel,58.82352941,611d3faadea138dec9219e19,611e07ecdcc96256ae8d5b80,611e7a1fce581730c9653309,,
,,,,space,,0,239,239,251,1,B, , , , ,space,1500,1.5,Holly,001,2021-08-19_16h37.09,natb3,2021.2.3,MacIntel,58.82352941,611d3faadea138dec9219e19,611e07ecdcc96256ae8d5b80,611e7a1fce581730c9653309,0.4,
,,,,space,,0,240,240,288,1,M, , , , ,space,1500,1.5,Holly,001,2021-08-19_16h37.09,natb3,2021.2.3,MacIntel,58.82352941,611d3faadea138dec9219e19,611e07ecdcc96256ae8d5b80,611e7a1fce581730c9653309,0.426,
,,,,space,,0,241,241,219,1,Y, , , , ,space,2000,2,Holly,001,2021-08-19_16h37.09,natb3,2021.2.3,MacIntel,58.82352941,611d3faadea138dec9219e19,611e07ecdcc96256ae8d5b80,611e7a1fce581730c9653309,0.44,
,,,,,,0,242,242,78,1,X, , , , ,,2000,2,Holly,001,2021-08-19_16h37.09,natb3,2021.2.3,MacIntel,58.82352941,611d3faadea138dec9219e19,611e07ecdcc96256ae8d5b80,611e7a1fce581730c9653309,,
,,,,space,,0,243,243,316,1,Z, , , , ,space,1500,1.5,Holly,001,2021-08-19_16h37.09,natb3,2021.2.3,MacIntel,58.82352941,611d3faadea138dec9219e19,611e07ecdcc96256ae8d5b80,611e7a1fce581730c9653309,0.454,
,,,,space,,0,244,244,278,1,J, , , , ,space,2000,2,Holly,001,2021-08-19_16h37.09,natb3,2021.2.3,MacIntel,58.82352941,611d3faadea138dec9219e19,611e07ecdcc96256ae8d5b80,611e7a1fce581730c9653309,0.352,
,,,,space,,0,245,245,313,1,X, , , , ,,2500,2.5,Holly,001,2021-08-19_16h37.09,natb3,2021.2.3,MacIntel,58.82352941,611d3faadea138dec9219e19,611e07ecdcc96256ae8d5b80,611e7a1fce581730c9653309,0.364,
,,,,space,,0,246,246,58,1,L, , , , ,space,2000,2,Holly,001,2021-08-19_16h37.09,natb3,2021.2.3,MacIntel,58.82352941,611d3faadea138dec9219e19,611e07ecdcc96256ae8d5b80,611e7a1fce581730c9653309,0.919,
,,,,space,,0,247,247,231,1,I, , , , ,space,2500,2.5,Holly,001,2021-08-19_16h37.09,natb3,2021.2.3,MacIntel,58.82352941,611d3faadea138dec9219e19,611e07ecdcc96256ae8d5b80,611e7a1fce581730c9653309,0.392,
,,,,,,0,248,248,148,1,X, , , , ,,2000,2,Holly,001,2021-08-19_16h37.09,natb3,2021.2.3,MacIntel,58.82352941,611d3faadea138dec9219e19,611e07ecdcc96256ae8d5b80,611e7a1fce581730c9653309,,
,,,,space,,0,249,249,1,1,W, , , , ,space,2000,2,Holly,001,2021-08-19_16h37.09,natb3,2021.2.3,MacIntel,58.82352941,611d3faadea138dec9219e19,611e07ecdcc96256ae8d5b80,611e7a1fce581730c9653309,0.464,
,,,,,,0,250,250,60,1,X,7,3,5, ,,1500,1.5,Holly,001,2021-08-19_16h37.09,natb3,2021.2.3,MacIntel,58.82352941,611d3faadea138dec9219e19,611e07ecdcc96256ae8d5b80,611e7a1fce581730c9653309,,
,,,,space,,0,251,251,130,1,F, , , , ,space,2000,2,Holly,001,2021-08-19_16h37.09,natb3,2021.2.3,MacIntel,58.82352941,611d3faadea138dec9219e19,611e07ecdcc96256ae8d5b80,611e7a1fce581730c9653309,0.624,
,,,,space,,0,252,252,267,1,P, , , , ,space,2000,2,Holly,001,2021-08-19_16h37.09,natb3,2021.2.3,MacIntel,58.82352941,611d3faadea138dec9219e19,611e07ecdcc96256ae8d5b80,611e7a1fce581730c9653309,0.581,
,,,,space,,0,253,253,274,1,F, , , , ,space,2000,2,Holly,001,2021-08-19_16h37.09,natb3,2021.2.3,MacIntel,58.82352941,611d3faadea138dec9219e19,611e07ecdcc96256ae8d5b80,611e7a1fce581730c9653309,0.471,
,,,,space,,0,254,254,10,1,O, , , , ,space,2000,2,Holly,001,2021-08-19_16h37.09,natb3,2021.2.3,MacIntel,58.82352941,611d3faadea138dec9219e19,611e07ecdcc96256ae8d5b80,611e7a1fce581730c9653309,0.467,
,,,,,,0,255,255,166,1,X, , , , ,,2000,2,Holly,001,2021-08-19_16h37.09,natb3,2021.2.3,MacIntel,58.82352941,611d3faadea138dec9219e19,611e07ecdcc96256ae8d5b80,611e7a1fce581730c9653309,,
,,,,space,,0,256,256,183,1,R, , , , ,space,1500,1.5,Holly,001,2021-08-19_16h37.09,natb3,2021.2.3,MacIntel,58.82352941,611d3faadea138dec9219e19,611e07ecdcc96256ae8d5b80,611e7a1fce581730c9653309,0.483,
,,,,space,,0,257,257,208,1,B, , , , ,space,1500,1.5,Holly,001,2021-08-19_16h37.09,natb3,2021.2.3,MacIntel,58.82352941,611d3faadea138dec9219e19,611e07ecdcc96256ae8d5b80,611e7a1fce581730c9653309,0.449,
,,,,space,,0,258,258,197,1,G, , , , ,space,2500,2.5,Holly,001,2021-08-19_16h37.09,natb3,2021.2.3,MacIntel,58.82352941,611d3faadea138dec9219e19,611e07ecdcc96256ae8d5b80,611e7a1fce581730c9653309,0.498,
,,,,,,0,259,259,318,1,X, , , , ,,1500,1.5,Holly,001,2021-08-19_16h37.09,natb3,2021.2.3,MacIntel,58.82352941,611d3faadea138dec9219e19,611e07ecdcc96256ae8d5b80,611e7a1fce581730c9653309,,
,,,,,,0,260,260,69,1,X, , , , ,,1500,1.5,Holly,001,2021-08-19_16h37.09,natb3,2021.2.3,MacIntel,58.82352941,611d3faadea138dec9219e19,611e07ecdcc96256ae8d5b80,611e7a1fce581730c9653309,,
,,,,space,,0,261,261,112,1,Q, , , , ,space,2500,2.5,Holly,001,2021-08-19_16h37.09,natb3,2021.2.3,MacIntel,58.82352941,611d3faadea138dec9219e19,611e07ecdcc96256ae8d5b80,611e7a1fce581730c9653309,0.59,
,,,,space,,0,262,262,61,1,C, , , , ,space,2000,2,Holly,001,2021-08-19_16h37.09,natb3,2021.2.3,MacIntel,58.82352941,611d3faadea138dec9219e19,611e07ecdcc96256ae8d5b80,611e7a1fce581730c9653309,0.352,
,,,,,,0,263,263,35,1,X, , , , ,,2500,2.5,Holly,001,2021-08-19_16h37.09,natb3,2021.2.3,MacIntel,58.82352941,611d3faadea138dec9219e19,611e07ecdcc96256ae8d5b80,611e7a1fce581730c9653309,,
,,,,space,,0,264,264,202,1,L, , , , ,space,2500,2.5,Holly,001,2021-08-19_16h37.09,natb3,2021.2.3,MacIntel,58.82352941,611d3faadea138dec9219e19,611e07ecdcc96256ae8d5b80,611e7a1fce581730c9653309,0.814,
,,,,space,,0,265,265,55,1,H, , , , ,space,2500,2.5,Holly,001,2021-08-19_16h37.09,natb3,2021.2.3,MacIntel,58.82352941,611d3faadea138dec9219e19,611e07ecdcc96256ae8d5b80,611e7a1fce581730c9653309,0.433,
,,,,,,0,266,266,218,1,X,1,3, ,8,,1500,1.5,Holly,001,2021-08-19_16h37.09,natb3,2021.2.3,MacIntel,58.82352941,611d3faadea138dec9219e19,611e07ecdcc96256ae8d5b80,611e7a1fce581730c9653309,,
,,,,,,0,267,267,236,1,X,3, ,4,7,,2500,2.5,Holly,001,2021-08-19_16h37.09,natb3,2021.2.3,MacIntel,58.82352941,611d3faadea138dec9219e19,611e07ecdcc96256ae8d5b80,611e7a1fce581730c9653309,,
,,,,space,,0,268,268,301,1,P, , , , ,space,1500,1.5,Holly,001,2021-08-19_16h37.09,natb3,2021.2.3,MacIntel,58.82352941,611d3faadea138dec9219e19,611e07ecdcc96256ae8d5b80,611e7a1fce581730c9653309,0.372,
,,,,space,,0,269,269,230,1,U, , , , ,space,1500,1.5,Holly,001,2021-08-19_16h37.09,natb3,2021.2.3,MacIntel,58.82352941,611d3faadea138dec9219e19,611e07ecdcc96256ae8d5b80,611e7a1fce581730c9653309,0.664,
,,,,space,,0,270,270,97,1,B, , , , ,space,2500,2.5,Holly,001,2021-08-19_16h37.09,natb3,2021.2.3,MacIntel,58.82352941,611d3faadea138dec9219e19,611e07ecdcc96256ae8d5b80,611e7a1fce581730c9653309,0.546,
,,,,space,,0,271,271,45,1,O, , , , ,space,2000,2,Holly,001,2021-08-19_16h37.09,natb3,2021.2.3,MacIntel,58.82352941,611d3faadea138dec9219e19,611e07ecdcc96256ae8d5b80,611e7a1fce581730c9653309,0.54,
,,,,space,,0,272,272,257,1,W, , , , ,space,2000,2,Holly,001,2021-08-19_16h37.09,natb3,2021.2.3,MacIntel,58.82352941,611d3faadea138dec9219e19,611e07ecdcc96256ae8d5b80,611e7a1fce581730c9653309,0.697,
,,,,space,,0,273,273,196,1,F, , , , ,space,1500,1.5,Holly,001,2021-08-19_16h37.09,natb3,2021.2.3,MacIntel,58.82352941,611d3faadea138dec9219e19,611e07ecdcc96256ae8d5b80,611e7a1fce581730c9653309,0.401,
,,,,space,,0,274,274,115,1,R, , , , ,space,1500,1.5,Holly,001,2021-08-19_16h37.09,natb3,2021.2.3,MacIntel,58.82352941,611d3faadea138dec9219e19,611e07ecdcc96256ae8d5b80,611e7a1fce581730c9653309,0.372,
,,,,space,,0,275,275,292,1,E, , , , ,space,2000,2,Holly,001,2021-08-19_16h37.09,natb3,2021.2.3,MacIntel,58.82352941,611d3faadea138dec9219e19,611e07ecdcc96256ae8d5b80,611e7a1fce581730c9653309,0.394,
,,,,space,,0,276,276,90,1,K, , , , ,space,2000,2,Holly,001,2021-08-19_16h37.09,natb3,2021.2.3,MacIntel,58.82352941,611d3faadea138dec9219e19,611e07ecdcc96256ae8d5b80,611e7a1fce581730c9653309,0.379,
,,,,space,,0,277,277,32,1,M, , , , ,space,1500,1.5,Holly,001,2021-08-19_16h37.09,natb3,2021.2.3,MacIntel,58.82352941,611d3faadea138dec9219e19,611e07ecdcc96256ae8d5b80,611e7a1fce581730c9653309,0.397,
,,,,space,,0,278,278,119,1,Y, , , , ,space,2500,2.5,Holly,001,2021-08-19_16h37.09,natb3,2021.2.3,MacIntel,58.82352941,611d3faadea138dec9219e19,611e07ecdcc96256ae8d5b80,611e7a1fce581730c9653309,0.456,
,,,,space,,0,279,279,91,1,L, , , , ,space,2000,2,Holly,001,2021-08-19_16h37.09,natb3,2021.2.3,MacIntel,58.82352941,611d3faadea138dec9219e19,611e07ecdcc96256ae8d5b80,611e7a1fce581730c9653309,0.379,
,,,,space,,0,280,280,324,1,Q, , , , ,space,2000,2,Holly,001,2021-08-19_16h37.09,natb3,2021.2.3,MacIntel,58.82352941,611d3faadea138dec9219e19,611e07ecdcc96256ae8d5b80,611e7a1fce581730c9653309,0.364,
,,,,,,0,281,281,39,1,X,6,2, , ,,1500,1.5,Holly,001,2021-08-19_16h37.09,natb3,2021.2.3,MacIntel,58.82352941,611d3faadea138dec9219e19,611e07ecdcc96256ae8d5b80,611e7a1fce581730c9653309,,
,,,,space,,0,282,282,21,1,J, , , , ,space,1500,1.5,Holly,001,2021-08-19_16h37.09,natb3,2021.2.3,MacIntel,58.82352941,611d3faadea138dec9219e19,611e07ecdcc96256ae8d5b80,611e7a1fce581730c9653309,0.654,
,,,,space,,0,283,283,81,1,S, , , , ,space,2000,2,Holly,001,2021-08-19_16h37.09,natb3,2021.2.3,MacIntel,58.82352941,611d3faadea138dec9219e19,611e07ecdcc96256ae8d5b80,611e7a1fce581730c9653309,0.353,
,,,,space,,0,284,284,25,1,Z, , , , ,space,2500,2.5,Holly,001,2021-08-19_16h37.09,natb3,2021.2.3,MacIntel,58.82352941,611d3faadea138dec9219e19,611e07ecdcc96256ae8d5b80,611e7a1fce581730c9653309,0.334,
,,,,space,,0,285,285,26,1,C, , , , ,space,2000,2,Holly,001,2021-08-19_16h37.09,natb3,2021.2.3,MacIntel,58.82352941,611d3faadea138dec9219e19,611e07ecdcc96256ae8d5b80,611e7a1fce581730c9653309,0.4,
,,,,,,0,286,286,207,1,X,9, ,2, ,,2500,2.5,Holly,001,2021-08-19_16h37.09,natb3,2021.2.3,MacIntel,58.82352941,611d3faadea138dec9219e19,611e07ecdcc96256ae8d5b80,611e7a1fce581730c9653309,,
,,,,space,,0,287,287,239,1,X, , , , ,,2000,2,Holly,001,2021-08-19_16h37.09,natb3,2021.2.3,MacIntel,58.82352941,611d3faadea138dec9219e19,611e07ecdcc96256ae8d5b80,611e7a1fce581730c9653309,0.41,
,,,,space,,0,288,288,121,1,I, , , , ,space,2000,2,Holly,001,2021-08-19_16h37.09,natb3,2021.2.3,MacIntel,58.82352941,611d3faadea138dec9219e19,611e07ecdcc96256ae8d5b80,611e7a1fce581730c9653309,0.463,
,,,,space,,0,289,289,171,1,X, , , , ,,1500,1.5,Holly,001,2021-08-19_16h37.09,natb3,2021.2.3,MacIntel,58.82352941,611d3faadea138dec9219e19,611e07ecdcc96256ae8d5b80,611e7a1fce581730c9653309,0.39,
,,,,,,0,290,290,27,1,X,5, ,1,3,,1500,1.5,Holly,001,2021-08-19_16h37.09,natb3,2021.2.3,MacIntel,58.82352941,611d3faadea138dec9219e19,611e07ecdcc96256ae8d5b80,611e7a1fce581730c9653309,,
,,,,space,,0,291,291,47,1,P, , , , ,space,2000,2,Holly,001,2021-08-19_16h37.09,natb3,2021.2.3,MacIntel,58.82352941,611d3faadea138dec9219e19,611e07ecdcc96256ae8d5b80,611e7a1fce581730c9653309,0.493,
,,,,,,0,292,292,255,1,X, , , , ,,1500,1.5,Holly,001,2021-08-19_16h37.09,natb3,2021.2.3,MacIntel,58.82352941,611d3faadea138dec9219e19,611e07ecdcc96256ae8d5b80,611e7a1fce581730c9653309,,
,,,,space,,0,293,293,249,1,C, , , , ,space,2000,2,Holly,001,2021-08-19_16h37.09,natb3,2021.2.3,MacIntel,58.82352941,611d3faadea138dec9219e19,611e07ecdcc96256ae8d5b80,611e7a1fce581730c9653309,0.44,
,,,,space,,0,294,294,234,1,P, , , , ,space,2000,2,Holly,001,2021-08-19_16h37.09,natb3,2021.2.3,MacIntel,58.82352941,611d3faadea138dec9219e19,611e07ecdcc96256ae8d5b80,611e7a1fce581730c9653309,0.39,
,,,,space,,0,295,295,140,1,B, , , , ,space,2500,2.5,Holly,001,2021-08-19_16h37.09,natb3,2021.2.3,MacIntel,58.82352941,611d3faadea138dec9219e19,611e07ecdcc96256ae8d5b80,611e7a1fce581730c9653309,0.368,
,,,,,,0,296,296,23,1,X,1, ,5, ,,2000,2,Holly,001,2021-08-19_16h37.09,natb3,2021.2.3,MacIntel,58.82352941,611d3faadea138dec9219e19,611e07ecdcc96256ae8d5b80,611e7a1fce581730c9653309,,
,,,,space,,0,297,297,24,1,L, , , , ,space,2500,2.5,Holly,001,2021-08-19_16h37.09,natb3,2021.2.3,MacIntel,58.82352941,611d3faadea138dec9219e19,611e07ecdcc96256ae8d5b80,611e7a1fce581730c9653309,0.396,
,,,,space,,0,298,298,266,1,O, , , , ,space,1500,1.5,Holly,001,2021-08-19_16h37.09,natb3,2021.2.3,MacIntel,58.82352941,611d3faadea138dec9219e19,611e07ecdcc96256ae8d5b80,611e7a1fce581730c9653309,0.558,
,,,,space,,0,299,299,310,1,J, , , , ,space,2500,2.5,Holly,001,2021-08-19_16h37.09,natb3,2021.2.3,MacIntel,58.82352941,611d3faadea138dec9219e19,611e07ecdcc96256ae8d5b80,611e7a1fce581730c9653309,0.449,
,,,,space,,0,300,300,111,1,O, , , , ,space,2000,2,Holly,001,2021-08-19_16h37.09,natb3,2021.2.3,MacIntel,58.82352941,611d3faadea138dec9219e19,611e07ecdcc96256ae8d5b80,611e7a1fce581730c9653309,0.471,
,,,,space,,0,301,301,76,1,I, , , , ,space,2000,2,Holly,001,2021-08-19_16h37.09,natb3,2021.2.3,MacIntel,58.82352941,611d3faadea138dec9219e19,611e07ecdcc96256ae8d5b80,611e7a1fce581730c9653309,0.37,
,,,,,,0,302,302,273,1,X, , , , ,,2000,2,Holly,001,2021-08-19_16h37.09,natb3,2021.2.3,MacIntel,58.82352941,611d3faadea138dec9219e19,611e07ecdcc96256ae8d5b80,611e7a1fce581730c9653309,,
,,,,space,,0,303,303,20,1,H, , , , ,space,1500,1.5,Holly,001,2021-08-19_16h37.09,natb3,2021.2.3,MacIntel,58.82352941,611d3faadea138dec9219e19,611e07ecdcc96256ae8d5b80,611e7a1fce581730c9653309,0.408,
,,,,space,,0,304,304,142,1,N, , , , ,space,2500,2.5,Holly,001,2021-08-19_16h37.09,natb3,2021.2.3,MacIntel,58.82352941,611d3faadea138dec9219e19,611e07ecdcc96256ae8d5b80,611e7a1fce581730c9653309,0.397,
,,,,space,,0,305,305,16,1,D, , , , ,space,1500,1.5,Holly,001,2021-08-19_16h37.09,natb3,2021.2.3,MacIntel,58.82352941,611d3faadea138dec9219e19,611e07ecdcc96256ae8d5b80,611e7a1fce581730c9653309,0.417,
,,,,,,0,306,306,200,1,X,7, ,5,3,,1500,1.5,Holly,001,2021-08-19_16h37.09,natb3,2021.2.3,MacIntel,58.82352941,611d3faadea138dec9219e19,611e07ecdcc96256ae8d5b80,611e7a1fce581730c9653309,,
,,,,space,,0,307,307,68,1,W, , , , ,space,2500,2.5,Holly,001,2021-08-19_16h37.09,natb3,2021.2.3,MacIntel,58.82352941,611d3faadea138dec9219e19,611e07ecdcc96256ae8d5b80,611e7a1fce581730c9653309,0.414,
,,,,space,,0,308,308,113,1,W, , , , ,space,2500,2.5,Holly,001,2021-08-19_16h37.09,natb3,2021.2.3,MacIntel,58.82352941,611d3faadea138dec9219e19,611e07ecdcc96256ae8d5b80,611e7a1fce581730c9653309,0.351,
,,,,space,,0,309,309,330,1,T, , , , ,space,2500,2.5,Holly,001,2021-08-19_16h37.09,natb3,2021.2.3,MacIntel,58.82352941,611d3faadea138dec9219e19,611e07ecdcc96256ae8d5b80,611e7a1fce581730c9653309,0.503,
,,,,,,0,310,310,187,1,X, ,3,7,4,,1500,1.5,Holly,001,2021-08-19_16h37.09,natb3,2021.2.3,MacIntel,58.82352941,611d3faadea138dec9219e19,611e07ecdcc96256ae8d5b80,611e7a1fce581730c9653309,,
,,,,space,,0,311,311,136,1,Z, , , , ,space,2500,2.5,Holly,001,2021-08-19_16h37.09,natb3,2021.2.3,MacIntel,58.82352941,611d3faadea138dec9219e19,611e07ecdcc96256ae8d5b80,611e7a1fce581730c9653309,0.562,
,,,,,,0,312,312,263,1,X,4, ,6, ,,1500,1.5,Holly,001,2021-08-19_16h37.09,natb3,2021.2.3,MacIntel,58.82352941,611d3faadea138dec9219e19,611e07ecdcc96256ae8d5b80,611e7a1fce581730c9653309,,
,,,,space,,0,313,313,120,1,U, , , , ,space,1500,1.5,Holly,001,2021-08-19_16h37.09,natb3,2021.2.3,MacIntel,58.82352941,611d3faadea138dec9219e19,611e07ecdcc96256ae8d5b80,611e7a1fce581730c9653309,0.475,
,,,,space,,0,314,314,101,1,Q, , , , ,space,2500,2.5,Holly,001,2021-08-19_16h37.09,natb3,2021.2.3,MacIntel,58.82352941,611d3faadea138dec9219e19,611e07ecdcc96256ae8d5b80,611e7a1fce581730c9653309,0.48,
,,,,space,,0,315,315,281,1,Z, , , , ,space,1500,1.5,Holly,001,2021-08-19_16h37.09,natb3,2021.2.3,MacIntel,58.82352941,611d3faadea138dec9219e19,611e07ecdcc96256ae8d5b80,611e7a1fce581730c9653309,0.382,
,,,,space,,0,316,316,245,1,K, , , , ,space,2000,2,Holly,001,2021-08-19_16h37.09,natb3,2021.2.3,MacIntel,58.82352941,611d3faadea138dec9219e19,611e07ecdcc96256ae8d5b80,611e7a1fce581730c9653309,0.547,
,,,,,,0,317,317,129,1,X,2,3,5, ,,1500,1.5,Holly,001,2021-08-19_16h37.09,natb3,2021.2.3,MacIntel,58.82352941,611d3faadea138dec9219e19,611e07ecdcc96256ae8d5b80,611e7a1fce581730c9653309,,
,,,,,,0,318,318,133,1,X, ,4, ,6,,2500,2.5,Holly,001,2021-08-19_16h37.09,natb3,2021.2.3,MacIntel,58.82352941,611d3faadea138dec9219e19,611e07ecdcc96256ae8d5b80,611e7a1fce581730c9653309,,
,,,,space,,0,319,319,159,1,S, , , , ,space,2500,2.5,Holly,001,2021-08-19_16h37.09,natb3,2021.2.3,MacIntel,58.82352941,611d3faadea138dec9219e19,611e07ecdcc96256ae8d5b80,611e7a1fce581730c9653309,0.504,
,,,,space,,0,320,320,260,1,R, , , , ,space,2000,2,Holly,001,2021-08-19_16h37.09,natb3,2021.2.3,MacIntel,58.82352941,611d3faadea138dec9219e19,611e07ecdcc96256ae8d5b80,611e7a1fce581730c9653309,0.382,
,,,,space,,0,321,321,240,1,F, , , , ,space,2500,2.5,Holly,001,2021-08-19_16h37.09,natb3,2021.2.3,MacIntel,58.82352941,611d3faadea138dec9219e19,611e07ecdcc96256ae8d5b80,611e7a1fce581730c9653309,0.479,
,,,,space,,0,322,322,294,1,T, , , , ,space,2000,2,Holly,001,2021-08-19_16h37.09,natb3,2021.2.3,MacIntel,58.82352941,611d3faadea138dec9219e19,611e07ecdcc96256ae8d5b80,611e7a1fce581730c9653309,0.554,
,,,,space,,0,323,323,5,1,T, , , , ,space,2000,2,Holly,001,2021-08-19_16h37.09,natb3,2021.2.3,MacIntel,58.82352941,611d3faadea138dec9219e19,611e07ecdcc96256ae8d5b80,611e7a1fce581730c9653309,0.321,
,,,,,,0,324,324,98,1,X, , , , ,,2500,2.5,Holly,001,2021-08-19_16h37.09,natb3,2021.2.3,MacIntel,58.82352941,611d3faadea138dec9219e19,611e07ecdcc96256ae8d5b80,611e7a1fce581730c9653309,,
,,,,space,,0,325,325,134,1,J, , , , ,space,2000,2,Holly,001,2021-08-19_16h37.09,natb3,2021.2.3,MacIntel,58.82352941,611d3faadea138dec9219e19,611e07ecdcc96256ae8d5b80,611e7a1fce581730c9653309,0.362,
,,,,,,0,326,326,66,1,X, ,4,7, ,,2000,2,Holly,001,2021-08-19_16h37.09,natb3,2021.2.3,MacIntel,58.82352941,611d3faadea138dec9219e19,611e07ecdcc96256ae8d5b80,611e7a1fce581730c9653309,,
,,,,,,0,327,327,4,1,X, , , , ,,2000,2,Holly,001,2021-08-19_16h37.09,natb3,2021.2.3,MacIntel,58.82352941,611d3faadea138dec9219e19,611e07ecdcc96256ae8d5b80,611e7a1fce581730c9653309,,
,,,,space,,0,328,328,34,1,Q, , , , ,space,2500,2.5,Holly,001,2021-08-19_16h37.09,natb3,2021.2.3,MacIntel,58.82352941,611d3faadea138dec9219e19,611e07ecdcc96256ae8d5b80,611e7a1fce581730c9653309,0.517,
,,,,space,,0,329,329,65,1,M, , , , ,space,1500,1.5,Holly,001,2021-08-19_16h37.09,natb3,2021.2.3,MacIntel,58.82352941,611d3faadea138dec9219e19,611e07ecdcc96256ae8d5b80,611e7a1fce581730c9653309,0.417,
,,,,space,,0,330,330,94,1,C, , , , ,space,2000,2,Holly,001,2021-08-19_16h37.09,natb3,2021.2.3,MacIntel,58.82352941,611d3faadea138dec9219e19,611e07ecdcc96256ae8d5b80,611e7a1fce581730c9653309,0.453,
,,,,space,,0,331,331,265,1,I, , , , ,space,2000,2,Holly,001,2021-08-19_16h37.09,natb3,2021.2.3,MacIntel,58.82352941,611d3faadea138dec9219e19,611e07ecdcc96256ae8d5b80,611e7a1fce581730c9653309,0.363,
,,,,space,,0,332,332,139,1,V, , , , ,space,2000,2,Holly,001,2021-08-19_16h37.09,natb3,2021.2.3,MacIntel,58.82352941,611d3faadea138dec9219e19,611e07ecdcc96256ae8d5b80,611e7a1fce581730c9653309,0.481,
,,,,space,,0,333,333,177,1,M, , , , ,space,2500,2.5,Holly,001,2021-08-19_16h37.09,natb3,2021.2.3,MacIntel,58.82352941,611d3faadea138dec9219e19,611e07ecdcc96256ae8d5b80,611e7a1fce581730c9653309,0.378,
,,,,space,,0,334,334,300,1,O, , , , ,space,2500,2.5,Holly,001,2021-08-19_16h37.09,natb3,2021.2.3,MacIntel,58.82352941,611d3faadea138dec9219e19,611e07ecdcc96256ae8d5b80,611e7a1fce581730c9653309,0.348,
,,,,space,,0,335,335,88,1,J, , , , ,space,2500,2.5,Holly,001,2021-08-19_16h37.09,natb3,2021.2.3,MacIntel,58.82352941,611d3faadea138dec9219e19,611e07ecdcc96256ae8d5b80,611e7a1fce581730c9653309,0.513,
