key_resp_2.keys,key_resp_2.rt,key_resp_3.keys,key_resp_3.rt,key_resp.keys,key_resp_4.keys,trials.thisRepN,trials.thisTrialN,trials.thisN,trials.thisIndex,trials.ran,stimulus,distractor1,distractor2,distractor3,distractor4,CorrAns,isi_duration,isi_dur_in_seconds,participant,session,date,expName,psychopyVersion,OS,frameRate,PROLIFIC_PID,STUDY_ID,SESSION_ID,key_resp.rt,key_resp_4.rt
return,10.6636,space,22.2947,,,0,0,0,280,1,L, , , , ,space,1500,1.5,J H,001,2021-08-19_15h40.03.798,natb3,2021.2.3,Win32,59.99160118,610d9094f6a4a359eda594e6,611e07ecdcc96256ae8d5b80,611e6d2bc040d9f523901f24,,
,,,,space,,0,1,1,35,1,X, , , , ,,2500,2.5,J H,001,2021-08-19_15h40.03.798,natb3,2021.2.3,Win32,59.99160118,610d9094f6a4a359eda594e6,611e07ecdcc96256ae8d5b80,611e6d2bc040d9f523901f24,0.293,
,,,,space,,0,2,2,224,1,W, , , , ,space,1500,1.5,J H,001,2021-08-19_15h40.03.798,natb3,2021.2.3,Win32,59.99160118,610d9094f6a4a359eda594e6,611e07ecdcc96256ae8d5b80,611e6d2bc040d9f523901f24,0.3934,
,,,,space,,0,3,3,146,1,W, , , , ,space,1500,1.5,J H,001,2021-08-19_15h40.03.798,natb3,2021.2.3,Win32,59.99160118,610d9094f6a4a359eda594e6,611e07ecdcc96256ae8d5b80,611e6d2bc040d9f523901f24,0.4018,
,,,,,,0,4,4,98,1,X, , , , ,,2500,2.5,J H,001,2021-08-19_15h40.03.798,natb3,2021.2.3,Win32,59.99160118,610d9094f6a4a359eda594e6,611e07ecdcc96256ae8d5b80,611e6d2bc040d9f523901f24,,
,,,,space,,0,5,5,328,1,R, , , , ,space,1500,1.5,J H,001,2021-08-19_15h40.03.798,natb3,2021.2.3,Win32,59.99160118,610d9094f6a4a359eda594e6,611e07ecdcc96256ae8d5b80,611e6d2bc040d9f523901f24,0.3674,
,,,,,,0,6,6,145,1,X, , , , ,,2000,2,J H,001,2021-08-19_15h40.03.798,natb3,2021.2.3,Win32,59.99160118,610d9094f6a4a359eda594e6,611e07ecdcc96256ae8d5b80,611e6d2bc040d9f523901f24,,
,,,,space,,0,7,7,209,1,N, , , , ,space,2000,2,J H,001,2021-08-19_15h40.03.798,natb3,2021.2.3,Win32,59.99160118,610d9094f6a4a359eda594e6,611e07ecdcc96256ae8d5b80,611e6d2bc040d9f523901f24,0.2922,
,,,,space,,0,8,8,109,1,U, , , , ,space,1500,1.5,J H,001,2021-08-19_15h40.03.798,natb3,2021.2.3,Win32,59.99160118,610d9094f6a4a359eda594e6,611e07ecdcc96256ae8d5b80,611e6d2bc040d9f523901f24,0.276,
,,,,,,0,9,9,60,1,X,7,3,5, ,,1500,1.5,J H,001,2021-08-19_15h40.03.798,natb3,2021.2.3,Win32,59.99160118,610d9094f6a4a359eda594e6,611e07ecdcc96256ae8d5b80,611e6d2bc040d9f523901f24,,
,,,,space,,0,10,10,266,1,O, , , , ,space,1500,1.5,J H,001,2021-08-19_15h40.03.798,natb3,2021.2.3,Win32,59.99160118,610d9094f6a4a359eda594e6,611e07ecdcc96256ae8d5b80,611e6d2bc040d9f523901f24,0.4234,
,,,,space,,0,11,11,104,1,E, , , , ,space,2000,2,J H,001,2021-08-19_15h40.03.798,natb3,2021.2.3,Win32,59.99160118,610d9094f6a4a359eda594e6,611e07ecdcc96256ae8d5b80,611e6d2bc040d9f523901f24,0.3664,
,,,,space,,0,12,12,142,1,N, , , , ,space,2500,2.5,J H,001,2021-08-19_15h40.03.798,natb3,2021.2.3,Win32,59.99160118,610d9094f6a4a359eda594e6,611e07ecdcc96256ae8d5b80,611e6d2bc040d9f523901f24,0.3109,
,,,,space,,0,13,13,212,1,Q, , , , ,space,2500,2.5,J H,001,2021-08-19_15h40.03.798,natb3,2021.2.3,Win32,59.99160118,610d9094f6a4a359eda594e6,611e07ecdcc96256ae8d5b80,611e6d2bc040d9f523901f24,0.2731,
,,,,space,,0,14,14,331,1,Y, , , , ,space,2500,2.5,J H,001,2021-08-19_15h40.03.798,natb3,2021.2.3,Win32,59.99160118,610d9094f6a4a359eda594e6,611e07ecdcc96256ae8d5b80,611e6d2bc040d9f523901f24,0.2849,
,,,,space,,0,15,15,50,1,D, , , , ,space,1500,1.5,J H,001,2021-08-19_15h40.03.798,natb3,2021.2.3,Win32,59.99160118,610d9094f6a4a359eda594e6,611e07ecdcc96256ae8d5b80,611e6d2bc040d9f523901f24,0.3183,
,,,,space,,0,16,16,222,1,O, , , , ,space,2000,2,J H,001,2021-08-19_15h40.03.798,natb3,2021.2.3,Win32,59.99160118,610d9094f6a4a359eda594e6,611e07ecdcc96256ae8d5b80,611e6d2bc040d9f523901f24,0.2978,
,,,,space,,0,17,17,232,1,O, , , , ,space,2500,2.5,J H,001,2021-08-19_15h40.03.798,natb3,2021.2.3,Win32,59.99160118,610d9094f6a4a359eda594e6,611e07ecdcc96256ae8d5b80,611e6d2bc040d9f523901f24,0.288,
,,,,space,,0,18,18,189,1,O, , , , ,space,1500,1.5,J H,001,2021-08-19_15h40.03.798,natb3,2021.2.3,Win32,59.99160118,610d9094f6a4a359eda594e6,611e07ecdcc96256ae8d5b80,611e6d2bc040d9f523901f24,0.2839,
,,,,space,,0,19,19,291,1,X, , , , ,,2000,2,J H,001,2021-08-19_15h40.03.798,natb3,2021.2.3,Win32,59.99160118,610d9094f6a4a359eda594e6,611e07ecdcc96256ae8d5b80,611e6d2bc040d9f523901f24,0.3009,
,,,,space,,0,20,20,54,1,X, , , , ,,2000,2,J H,001,2021-08-19_15h40.03.798,natb3,2021.2.3,Win32,59.99160118,610d9094f6a4a359eda594e6,611e07ecdcc96256ae8d5b80,611e6d2bc040d9f523901f24,0.3215,
,,,,space,,0,21,21,319,1,V, , , , ,space,2000,2,J H,001,2021-08-19_15h40.03.798,natb3,2021.2.3,Win32,59.99160118,610d9094f6a4a359eda594e6,611e07ecdcc96256ae8d5b80,611e6d2bc040d9f523901f24,0.4954,
,,,,space,,0,22,22,192,1,A, , , , ,space,2000,2,J H,001,2021-08-19_15h40.03.798,natb3,2021.2.3,Win32,59.99160118,610d9094f6a4a359eda594e6,611e07ecdcc96256ae8d5b80,611e6d2bc040d9f523901f24,0.5457,
,,,,space,,0,23,23,327,1,E, , , , ,space,1500,1.5,J H,001,2021-08-19_15h40.03.798,natb3,2021.2.3,Win32,59.99160118,610d9094f6a4a359eda594e6,611e07ecdcc96256ae8d5b80,611e6d2bc040d9f523901f24,0.3556,
,,,,space,,0,24,24,8,1,U, , , , ,space,1500,1.5,J H,001,2021-08-19_15h40.03.798,natb3,2021.2.3,Win32,59.99160118,610d9094f6a4a359eda594e6,611e07ecdcc96256ae8d5b80,611e6d2bc040d9f523901f24,0.3248,
,,,,space,,0,25,25,44,1,I, , , , ,space,2500,2.5,J H,001,2021-08-19_15h40.03.798,natb3,2021.2.3,Win32,59.99160118,610d9094f6a4a359eda594e6,611e07ecdcc96256ae8d5b80,611e6d2bc040d9f523901f24,0.3678,
,,,,space,,0,26,26,55,1,H, , , , ,space,2500,2.5,J H,001,2021-08-19_15h40.03.798,natb3,2021.2.3,Win32,59.99160118,610d9094f6a4a359eda594e6,611e07ecdcc96256ae8d5b80,611e6d2bc040d9f523901f24,0.3496,
,,,,space,,0,27,27,64,1,N, , , , ,space,2000,2,J H,001,2021-08-19_15h40.03.798,natb3,2021.2.3,Win32,59.99160118,610d9094f6a4a359eda594e6,611e07ecdcc96256ae8d5b80,611e6d2bc040d9f523901f24,0.3471,
,,,,space,,0,28,28,127,1,S, , , , ,space,2500,2.5,J H,001,2021-08-19_15h40.03.798,natb3,2021.2.3,Win32,59.99160118,610d9094f6a4a359eda594e6,611e07ecdcc96256ae8d5b80,611e6d2bc040d9f523901f24,0.3107,
,,,,space,,0,29,29,156,1,P, , , , ,space,1500,1.5,J H,001,2021-08-19_15h40.03.798,natb3,2021.2.3,Win32,59.99160118,610d9094f6a4a359eda594e6,611e07ecdcc96256ae8d5b80,611e6d2bc040d9f523901f24,0.4454,
,,,,space,,0,30,30,265,1,I, , , , ,space,2000,2,J H,001,2021-08-19_15h40.03.798,natb3,2021.2.3,Win32,59.99160118,610d9094f6a4a359eda594e6,611e07ecdcc96256ae8d5b80,611e6d2bc040d9f523901f24,0.2773,
,,,,space,,0,31,31,229,1,X,8, ,2,6,,2500,2.5,J H,001,2021-08-19_15h40.03.798,natb3,2021.2.3,Win32,59.99160118,610d9094f6a4a359eda594e6,611e07ecdcc96256ae8d5b80,611e6d2bc040d9f523901f24,0.2569,
,,,,space,,0,32,32,205,1,C, , , , ,space,2000,2,J H,001,2021-08-19_15h40.03.798,natb3,2021.2.3,Win32,59.99160118,610d9094f6a4a359eda594e6,611e07ecdcc96256ae8d5b80,611e6d2bc040d9f523901f24,0.4094,
,,,,space,,0,33,33,225,1,E, , , , ,space,2000,2,J H,001,2021-08-19_15h40.03.798,natb3,2021.2.3,Win32,59.99160118,610d9094f6a4a359eda594e6,611e07ecdcc96256ae8d5b80,611e6d2bc040d9f523901f24,0.4184,
,,,,,,0,34,34,259,1,X,8, , ,3,,2500,2.5,J H,001,2021-08-19_15h40.03.798,natb3,2021.2.3,Win32,59.99160118,610d9094f6a4a359eda594e6,611e07ecdcc96256ae8d5b80,611e6d2bc040d9f523901f24,,
,,,,,,0,35,35,69,1,X, , , , ,,1500,1.5,J H,001,2021-08-19_15h40.03.798,natb3,2021.2.3,Win32,59.99160118,610d9094f6a4a359eda594e6,611e07ecdcc96256ae8d5b80,611e6d2bc040d9f523901f24,,
,,,,space,,0,36,36,276,1,H, , , , ,space,2000,2,J H,001,2021-08-19_15h40.03.798,natb3,2021.2.3,Win32,59.99160118,610d9094f6a4a359eda594e6,611e07ecdcc96256ae8d5b80,611e6d2bc040d9f523901f24,0.3982,
,,,,space,,0,37,37,254,1,M, , , , ,space,1500,1.5,J H,001,2021-08-19_15h40.03.798,natb3,2021.2.3,Win32,59.99160118,610d9094f6a4a359eda594e6,611e07ecdcc96256ae8d5b80,611e6d2bc040d9f523901f24,0.3652,
,,,,space,,0,38,38,241,1,G, , , , ,space,2500,2.5,J H,001,2021-08-19_15h40.03.798,natb3,2021.2.3,Win32,59.99160118,610d9094f6a4a359eda594e6,611e07ecdcc96256ae8d5b80,611e6d2bc040d9f523901f24,0.3807,
,,,,space,,0,39,39,310,1,J, , , , ,space,2500,2.5,J H,001,2021-08-19_15h40.03.798,natb3,2021.2.3,Win32,59.99160118,610d9094f6a4a359eda594e6,611e07ecdcc96256ae8d5b80,611e6d2bc040d9f523901f24,0.3024,
,,,,,,0,40,40,255,1,X, , , , ,,1500,1.5,J H,001,2021-08-19_15h40.03.798,natb3,2021.2.3,Win32,59.99160118,610d9094f6a4a359eda594e6,611e07ecdcc96256ae8d5b80,611e6d2bc040d9f523901f24,,
,,,,space,,0,41,41,154,1,I, , , , ,space,2500,2.5,J H,001,2021-08-19_15h40.03.798,natb3,2021.2.3,Win32,59.99160118,610d9094f6a4a359eda594e6,611e07ecdcc96256ae8d5b80,611e6d2bc040d9f523901f24,0.3932,
,,,,,,0,42,42,148,1,X, , , , ,,2000,2,J H,001,2021-08-19_15h40.03.798,natb3,2021.2.3,Win32,59.99160118,610d9094f6a4a359eda594e6,611e07ecdcc96256ae8d5b80,611e6d2bc040d9f523901f24,,
,,,,space,,0,43,43,312,1,K, , , , ,space,2000,2,J H,001,2021-08-19_15h40.03.798,natb3,2021.2.3,Win32,59.99160118,610d9094f6a4a359eda594e6,611e07ecdcc96256ae8d5b80,611e6d2bc040d9f523901f24,0.329,
,,,,,,0,44,44,78,1,X, , , , ,,2000,2,J H,001,2021-08-19_15h40.03.798,natb3,2021.2.3,Win32,59.99160118,610d9094f6a4a359eda594e6,611e07ecdcc96256ae8d5b80,611e6d2bc040d9f523901f24,,
,,,,space,,0,45,45,155,1,O, , , , ,space,1500,1.5,J H,001,2021-08-19_15h40.03.798,natb3,2021.2.3,Win32,59.99160118,610d9094f6a4a359eda594e6,611e07ecdcc96256ae8d5b80,611e6d2bc040d9f523901f24,0.5516,
,,,,space,,0,46,46,216,1,R, , , , ,space,1500,1.5,J H,001,2021-08-19_15h40.03.798,natb3,2021.2.3,Win32,59.99160118,610d9094f6a4a359eda594e6,611e07ecdcc96256ae8d5b80,611e6d2bc040d9f523901f24,0.3685,
,,,,,,0,47,47,89,1,X,3, , , ,,2000,2,J H,001,2021-08-19_15h40.03.798,natb3,2021.2.3,Win32,59.99160118,610d9094f6a4a359eda594e6,611e07ecdcc96256ae8d5b80,611e6d2bc040d9f523901f24,,
,,,,space,,0,48,48,163,1,G, , , , ,space,2500,2.5,J H,001,2021-08-19_15h40.03.798,natb3,2021.2.3,Win32,59.99160118,610d9094f6a4a359eda594e6,611e07ecdcc96256ae8d5b80,611e6d2bc040d9f523901f24,0.3738,
,,,,,,0,49,49,195,1,X, , , , ,,1500,1.5,J H,001,2021-08-19_15h40.03.798,natb3,2021.2.3,Win32,59.99160118,610d9094f6a4a359eda594e6,611e07ecdcc96256ae8d5b80,611e6d2bc040d9f523901f24,,
,,,,,,0,50,50,282,1,X, , , , ,,2500,2.5,J H,001,2021-08-19_15h40.03.798,natb3,2021.2.3,Win32,59.99160118,610d9094f6a4a359eda594e6,611e07ecdcc96256ae8d5b80,611e6d2bc040d9f523901f24,,
,,,,space,,0,51,51,45,1,O, , , , ,space,2000,2,J H,001,2021-08-19_15h40.03.798,natb3,2021.2.3,Win32,59.99160118,610d9094f6a4a359eda594e6,611e07ecdcc96256ae8d5b80,611e6d2bc040d9f523901f24,0.5516,
,,,,space,,0,52,52,262,1,Y, , , , ,space,2500,2.5,J H,001,2021-08-19_15h40.03.798,natb3,2021.2.3,Win32,59.99160118,610d9094f6a4a359eda594e6,611e07ecdcc96256ae8d5b80,611e6d2bc040d9f523901f24,0.8057,
,,,,space,,0,53,53,157,1,A, , , , ,space,2500,2.5,J H,001,2021-08-19_15h40.03.798,natb3,2021.2.3,Win32,59.99160118,610d9094f6a4a359eda594e6,611e07ecdcc96256ae8d5b80,611e6d2bc040d9f523901f24,0.3627,
,,,,space,,0,54,54,70,1,E, , , , ,space,2500,2.5,J H,001,2021-08-19_15h40.03.798,natb3,2021.2.3,Win32,59.99160118,610d9094f6a4a359eda594e6,611e07ecdcc96256ae8d5b80,611e6d2bc040d9f523901f24,0.3974,
,,,,,,0,55,55,168,1,X, , , , ,,2500,2.5,J H,001,2021-08-19_15h40.03.798,natb3,2021.2.3,Win32,59.99160118,610d9094f6a4a359eda594e6,611e07ecdcc96256ae8d5b80,611e6d2bc040d9f523901f24,,
,,,,space,,0,56,56,244,1,J, , , , ,space,1500,1.5,J H,001,2021-08-19_15h40.03.798,natb3,2021.2.3,Win32,59.99160118,610d9094f6a4a359eda594e6,611e07ecdcc96256ae8d5b80,611e6d2bc040d9f523901f24,0.5471,
,,,,,,0,57,57,107,1,X,9,3, ,2,,2000,2,J H,001,2021-08-19_15h40.03.798,natb3,2021.2.3,Win32,59.99160118,610d9094f6a4a359eda594e6,611e07ecdcc96256ae8d5b80,611e6d2bc040d9f523901f24,,
,,,,space,,0,58,58,73,1,Y, , , , ,space,2000,2,J H,001,2021-08-19_15h40.03.798,natb3,2021.2.3,Win32,59.99160118,610d9094f6a4a359eda594e6,611e07ecdcc96256ae8d5b80,611e6d2bc040d9f523901f24,0.4833,
,,,,space,,0,59,59,303,1,A, , , , ,space,2000,2,J H,001,2021-08-19_15h40.03.798,natb3,2021.2.3,Win32,59.99160118,610d9094f6a4a359eda594e6,611e07ecdcc96256ae8d5b80,611e6d2bc040d9f523901f24,0.3988,
,,,,space,,0,60,60,275,1,G, , , , ,space,1500,1.5,J H,001,2021-08-19_15h40.03.798,natb3,2021.2.3,Win32,59.99160118,610d9094f6a4a359eda594e6,611e07ecdcc96256ae8d5b80,611e6d2bc040d9f523901f24,0.3799,
,,,,space,,0,61,61,332,1,U, , , , ,space,2000,2,J H,001,2021-08-19_15h40.03.798,natb3,2021.2.3,Win32,59.99160118,610d9094f6a4a359eda594e6,611e07ecdcc96256ae8d5b80,611e6d2bc040d9f523901f24,0.331,
,,,,,,0,62,62,153,1,X,4,7, ,6,,2000,2,J H,001,2021-08-19_15h40.03.798,natb3,2021.2.3,Win32,59.99160118,610d9094f6a4a359eda594e6,611e07ecdcc96256ae8d5b80,611e6d2bc040d9f523901f24,,
,,,,space,,0,63,63,88,1,J, , , , ,space,2500,2.5,J H,001,2021-08-19_15h40.03.798,natb3,2021.2.3,Win32,59.99160118,610d9094f6a4a359eda594e6,611e07ecdcc96256ae8d5b80,611e6d2bc040d9f523901f24,0.3627,
,,,,space,,0,64,64,22,1,K, , , , ,space,2000,2,J H,001,2021-08-19_15h40.03.798,natb3,2021.2.3,Win32,59.99160118,610d9094f6a4a359eda594e6,611e07ecdcc96256ae8d5b80,611e6d2bc040d9f523901f24,0.3815,
,,,,space,,0,65,65,72,1,T, , , , ,space,1500,1.5,J H,001,2021-08-19_15h40.03.798,natb3,2021.2.3,Win32,59.99160118,610d9094f6a4a359eda594e6,611e07ecdcc96256ae8d5b80,611e6d2bc040d9f523901f24,0.3674,
,,,,space,,0,66,66,204,1,Z, , , , ,space,2000,2,J H,001,2021-08-19_15h40.03.798,natb3,2021.2.3,Win32,59.99160118,610d9094f6a4a359eda594e6,611e07ecdcc96256ae8d5b80,611e6d2bc040d9f523901f24,0.3152,
,,,,space,,0,67,67,193,1,S, , , , ,space,2500,2.5,J H,001,2021-08-19_15h40.03.798,natb3,2021.2.3,Win32,59.99160118,610d9094f6a4a359eda594e6,611e07ecdcc96256ae8d5b80,611e6d2bc040d9f523901f24,0.6098,
,,,,space,,0,68,68,75,1,U, , , , ,space,1500,1.5,J H,001,2021-08-19_15h40.03.798,natb3,2021.2.3,Win32,59.99160118,610d9094f6a4a359eda594e6,611e07ecdcc96256ae8d5b80,611e6d2bc040d9f523901f24,0.3168,
,,,,space,,0,69,69,217,1,T, , , , ,space,2500,2.5,J H,001,2021-08-19_15h40.03.798,natb3,2021.2.3,Win32,59.99160118,610d9094f6a4a359eda594e6,611e07ecdcc96256ae8d5b80,611e6d2bc040d9f523901f24,0.3812,
,,,,,,0,70,70,116,1,X, , , , ,,2000,2,J H,001,2021-08-19_15h40.03.798,natb3,2021.2.3,Win32,59.99160118,610d9094f6a4a359eda594e6,611e07ecdcc96256ae8d5b80,611e6d2bc040d9f523901f24,,
,,,,space,,0,71,71,103,1,W, , , , ,space,2000,2,J H,001,2021-08-19_15h40.03.798,natb3,2021.2.3,Win32,59.99160118,610d9094f6a4a359eda594e6,611e07ecdcc96256ae8d5b80,611e6d2bc040d9f523901f24,0.6833,
,,,,space,,0,72,72,7,1,X, , , , ,,1500,1.5,J H,001,2021-08-19_15h40.03.798,natb3,2021.2.3,Win32,59.99160118,610d9094f6a4a359eda594e6,611e07ecdcc96256ae8d5b80,611e6d2bc040d9f523901f24,0.3803,
,,,,,,0,73,73,333,1,I, , , , ,space,1500,1.5,J H,001,2021-08-19_15h40.03.798,natb3,2021.2.3,Win32,59.99160118,610d9094f6a4a359eda594e6,611e07ecdcc96256ae8d5b80,611e6d2bc040d9f523901f24,,
,,,,space,,0,74,74,117,1,T, , , , ,space,2500,2.5,J H,001,2021-08-19_15h40.03.798,natb3,2021.2.3,Win32,59.99160118,610d9094f6a4a359eda594e6,611e07ecdcc96256ae8d5b80,611e6d2bc040d9f523901f24,0.6464,
,,,,space,,0,75,75,194,1,D, , , , ,space,2000,2,J H,001,2021-08-19_15h40.03.798,natb3,2021.2.3,Win32,59.99160118,610d9094f6a4a359eda594e6,611e07ecdcc96256ae8d5b80,611e6d2bc040d9f523901f24,0.425,
,,,,space,,0,76,76,208,1,B, , , , ,space,1500,1.5,J H,001,2021-08-19_15h40.03.798,natb3,2021.2.3,Win32,59.99160118,610d9094f6a4a359eda594e6,611e07ecdcc96256ae8d5b80,611e6d2bc040d9f523901f24,0.7575,
,,,,space,,0,77,77,289,1,Q, , , , ,space,2000,2,J H,001,2021-08-19_15h40.03.798,natb3,2021.2.3,Win32,59.99160118,610d9094f6a4a359eda594e6,611e07ecdcc96256ae8d5b80,611e6d2bc040d9f523901f24,0.3377,
,,,,,,0,78,78,11,1,P, , , , ,space,2500,2.5,J H,001,2021-08-19_15h40.03.798,natb3,2021.2.3,Win32,59.99160118,610d9094f6a4a359eda594e6,611e07ecdcc96256ae8d5b80,611e6d2bc040d9f523901f24,,
,,,,,,0,79,79,311,1,X,1,2,7,3,,2500,2.5,J H,001,2021-08-19_15h40.03.798,natb3,2021.2.3,Win32,59.99160118,610d9094f6a4a359eda594e6,611e07ecdcc96256ae8d5b80,611e6d2bc040d9f523901f24,,
,,,,space,,0,80,80,86,1,G, , , , ,space,2000,2,J H,001,2021-08-19_15h40.03.798,natb3,2021.2.3,Win32,59.99160118,610d9094f6a4a359eda594e6,611e07ecdcc96256ae8d5b80,611e6d2bc040d9f523901f24,0.3827,
,,,,space,,0,81,81,23,1,X,1, ,5, ,,2000,2,J H,001,2021-08-19_15h40.03.798,natb3,2021.2.3,Win32,59.99160118,610d9094f6a4a359eda594e6,611e07ecdcc96256ae8d5b80,611e6d2bc040d9f523901f24,0.4187,
,,,,space,,0,82,82,240,1,F, , , , ,space,2500,2.5,J H,001,2021-08-19_15h40.03.798,natb3,2021.2.3,Win32,59.99160118,610d9094f6a4a359eda594e6,611e07ecdcc96256ae8d5b80,611e6d2bc040d9f523901f24,0.9034,
,,,,,,0,83,83,59,1,Z, , , , ,space,2000,2,J H,001,2021-08-19_15h40.03.798,natb3,2021.2.3,Win32,59.99160118,610d9094f6a4a359eda594e6,611e07ecdcc96256ae8d5b80,611e6d2bc040d9f523901f24,,
,,,,space,,0,84,84,65,1,M, , , , ,space,1500,1.5,J H,001,2021-08-19_15h40.03.798,natb3,2021.2.3,Win32,59.99160118,610d9094f6a4a359eda594e6,611e07ecdcc96256ae8d5b80,611e6d2bc040d9f523901f24,0.4471,
,,,,space,,0,85,85,92,1,Z, , , , ,space,1500,1.5,J H,001,2021-08-19_15h40.03.798,natb3,2021.2.3,Win32,59.99160118,610d9094f6a4a359eda594e6,611e07ecdcc96256ae8d5b80,611e6d2bc040d9f523901f24,0.9437,
,,,,space,,0,86,86,242,1,H, , , , ,space,2500,2.5,J H,001,2021-08-19_15h40.03.798,natb3,2021.2.3,Win32,59.99160118,610d9094f6a4a359eda594e6,611e07ecdcc96256ae8d5b80,611e6d2bc040d9f523901f24,0.3902,
,,,,,,0,87,87,82,1,X,4,6,1,7,,2000,2,J H,001,2021-08-19_15h40.03.798,natb3,2021.2.3,Win32,59.99160118,610d9094f6a4a359eda594e6,611e07ecdcc96256ae8d5b80,611e6d2bc040d9f523901f24,,
,,,,space,,0,88,88,165,1,J, , , , ,space,2500,2.5,J H,001,2021-08-19_15h40.03.798,natb3,2021.2.3,Win32,59.99160118,610d9094f6a4a359eda594e6,611e07ecdcc96256ae8d5b80,611e6d2bc040d9f523901f24,0.3576,
,,,,,,0,89,89,325,1,X, , , , ,,2500,2.5,J H,001,2021-08-19_15h40.03.798,natb3,2021.2.3,Win32,59.99160118,610d9094f6a4a359eda594e6,611e07ecdcc96256ae8d5b80,611e6d2bc040d9f523901f24,,
,,,,,,0,90,90,122,1,X,1, , ,8,,1500,1.5,J H,001,2021-08-19_15h40.03.798,natb3,2021.2.3,Win32,59.99160118,610d9094f6a4a359eda594e6,611e07ecdcc96256ae8d5b80,611e6d2bc040d9f523901f24,,
,,,,space,,0,91,91,10,1,O, , , , ,space,2000,2,J H,001,2021-08-19_15h40.03.798,natb3,2021.2.3,Win32,59.99160118,610d9094f6a4a359eda594e6,611e07ecdcc96256ae8d5b80,611e6d2bc040d9f523901f24,0.3335,
,,,,space,,0,92,92,223,1,Q, , , , ,space,2000,2,J H,001,2021-08-19_15h40.03.798,natb3,2021.2.3,Win32,59.99160118,610d9094f6a4a359eda594e6,611e07ecdcc96256ae8d5b80,611e6d2bc040d9f523901f24,0.3305,
,,,,space,,0,93,93,234,1,P, , , , ,space,2000,2,J H,001,2021-08-19_15h40.03.798,natb3,2021.2.3,Win32,59.99160118,610d9094f6a4a359eda594e6,611e07ecdcc96256ae8d5b80,611e6d2bc040d9f523901f24,0.3964,
,,,,space,,0,94,94,190,1,P, , , , ,space,2000,2,J H,001,2021-08-19_15h40.03.798,natb3,2021.2.3,Win32,59.99160118,610d9094f6a4a359eda594e6,611e07ecdcc96256ae8d5b80,611e6d2bc040d9f523901f24,0.6093,
,,,,space,,0,95,95,315,1,X, , , , ,,2500,2.5,J H,001,2021-08-19_15h40.03.798,natb3,2021.2.3,Win32,59.99160118,610d9094f6a4a359eda594e6,611e07ecdcc96256ae8d5b80,611e6d2bc040d9f523901f24,0.3334,
,,,,,,0,96,96,175,1,X,7, ,4,2,,1500,1.5,J H,001,2021-08-19_15h40.03.798,natb3,2021.2.3,Win32,59.99160118,610d9094f6a4a359eda594e6,611e07ecdcc96256ae8d5b80,611e6d2bc040d9f523901f24,,
,,,,,,0,97,97,33,1,X, , , , ,,1500,1.5,J H,001,2021-08-19_15h40.03.798,natb3,2021.2.3,Win32,59.99160118,610d9094f6a4a359eda594e6,611e07ecdcc96256ae8d5b80,611e6d2bc040d9f523901f24,,
,,,,space,,0,98,98,95,1,V, , , , ,space,1500,1.5,J H,001,2021-08-19_15h40.03.798,natb3,2021.2.3,Win32,59.99160118,610d9094f6a4a359eda594e6,611e07ecdcc96256ae8d5b80,611e6d2bc040d9f523901f24,0.4515,
,,,,,,0,99,99,39,1,X,6,2, , ,,1500,1.5,J H,001,2021-08-19_15h40.03.798,natb3,2021.2.3,Win32,59.99160118,610d9094f6a4a359eda594e6,611e07ecdcc96256ae8d5b80,611e6d2bc040d9f523901f24,,
,,,,space,,0,100,100,19,1,G, , , , ,space,1500,1.5,J H,001,2021-08-19_15h40.03.798,natb3,2021.2.3,Win32,59.99160118,610d9094f6a4a359eda594e6,611e07ecdcc96256ae8d5b80,611e6d2bc040d9f523901f24,0.3955,
,,,,,,0,101,101,260,1,R, , , , ,space,2000,2,J H,001,2021-08-19_15h40.03.798,natb3,2021.2.3,Win32,59.99160118,610d9094f6a4a359eda594e6,611e07ecdcc96256ae8d5b80,611e6d2bc040d9f523901f24,,
,,,,space,,0,102,102,0,1,Q, , , , ,space,1500,1.5,J H,001,2021-08-19_15h40.03.798,natb3,2021.2.3,Win32,59.99160118,610d9094f6a4a359eda594e6,611e07ecdcc96256ae8d5b80,611e6d2bc040d9f523901f24,0.7815,
,,,,space,,0,103,103,57,1,K, , , , ,space,2500,2.5,J H,001,2021-08-19_15h40.03.798,natb3,2021.2.3,Win32,59.99160118,610d9094f6a4a359eda594e6,611e07ecdcc96256ae8d5b80,611e6d2bc040d9f523901f24,0.4965,
,,,,,,0,104,104,110,1,I, , , , ,space,1500,1.5,J H,001,2021-08-19_15h40.03.798,natb3,2021.2.3,Win32,59.99160118,610d9094f6a4a359eda594e6,611e07ecdcc96256ae8d5b80,611e6d2bc040d9f523901f24,,
,,,,,,0,105,105,18,1,X, ,2,5,8,,2500,2.5,J H,001,2021-08-19_15h40.03.798,natb3,2021.2.3,Win32,59.99160118,610d9094f6a4a359eda594e6,611e07ecdcc96256ae8d5b80,611e6d2bc040d9f523901f24,,
,,,,space,,0,106,106,253,1,N, , , , ,space,2500,2.5,J H,001,2021-08-19_15h40.03.798,natb3,2021.2.3,Win32,59.99160118,610d9094f6a4a359eda594e6,611e07ecdcc96256ae8d5b80,611e6d2bc040d9f523901f24,0.3843,
,,,,space,,0,107,107,90,1,K, , , , ,space,2000,2,J H,001,2021-08-19_15h40.03.798,natb3,2021.2.3,Win32,59.99160118,610d9094f6a4a359eda594e6,611e07ecdcc96256ae8d5b80,611e6d2bc040d9f523901f24,0.7815,
,,,,space,,0,108,108,106,1,T, , , , ,space,1500,1.5,J H,001,2021-08-19_15h40.03.798,natb3,2021.2.3,Win32,59.99160118,610d9094f6a4a359eda594e6,611e07ecdcc96256ae8d5b80,611e6d2bc040d9f523901f24,0.911,
,,,,space,,0,109,109,47,1,P, , , , ,space,2000,2,J H,001,2021-08-19_15h40.03.798,natb3,2021.2.3,Win32,59.99160118,610d9094f6a4a359eda594e6,611e07ecdcc96256ae8d5b80,611e6d2bc040d9f523901f24,0.5121,
,,,,space,,0,110,110,37,1,E, , , , ,space,2500,2.5,J H,001,2021-08-19_15h40.03.798,natb3,2021.2.3,Win32,59.99160118,610d9094f6a4a359eda594e6,611e07ecdcc96256ae8d5b80,611e6d2bc040d9f523901f24,0.8502,
,,,,,,0,111,111,329,1,X,3,4, ,2,,2500,2.5,J H,001,2021-08-19_15h40.03.798,natb3,2021.2.3,Win32,59.99160118,610d9094f6a4a359eda594e6,611e07ecdcc96256ae8d5b80,611e6d2bc040d9f523901f24,,
,,,,space,,0,112,112,58,1,L, , , , ,space,2000,2,J H,001,2021-08-19_15h40.03.798,natb3,2021.2.3,Win32,59.99160118,610d9094f6a4a359eda594e6,611e07ecdcc96256ae8d5b80,611e6d2bc040d9f523901f24,0.5331,
,,,,,,0,113,113,118,1,X, , , , ,,2000,2,J H,001,2021-08-19_15h40.03.798,natb3,2021.2.3,Win32,59.99160118,610d9094f6a4a359eda594e6,611e07ecdcc96256ae8d5b80,611e6d2bc040d9f523901f24,,
,,,,space,,0,114,114,281,1,Z, , , , ,space,1500,1.5,J H,001,2021-08-19_15h40.03.798,natb3,2021.2.3,Win32,59.99160118,610d9094f6a4a359eda594e6,611e07ecdcc96256ae8d5b80,611e6d2bc040d9f523901f24,0.9018,
,,,,,,0,115,115,264,1,U, , , , ,space,2000,2,J H,001,2021-08-19_15h40.03.798,natb3,2021.2.3,Win32,59.99160118,610d9094f6a4a359eda594e6,611e07ecdcc96256ae8d5b80,611e6d2bc040d9f523901f24,,
,,,,space,,0,116,116,246,1,L, , , , ,space,2500,2.5,J H,001,2021-08-19_15h40.03.798,natb3,2021.2.3,Win32,59.99160118,610d9094f6a4a359eda594e6,611e07ecdcc96256ae8d5b80,611e6d2bc040d9f523901f24,0.8138,
,,,,space,,0,117,117,283,1,C, , , , ,space,1500,1.5,J H,001,2021-08-19_15h40.03.798,natb3,2021.2.3,Win32,59.99160118,610d9094f6a4a359eda594e6,611e07ecdcc96256ae8d5b80,611e6d2bc040d9f523901f24,0.378,
,,,,space,,0,118,118,181,1,E, , , , ,space,1500,1.5,J H,001,2021-08-19_15h40.03.798,natb3,2021.2.3,Win32,59.99160118,610d9094f6a4a359eda594e6,611e07ecdcc96256ae8d5b80,611e6d2bc040d9f523901f24,0.4106,
,,,,space,,0,119,119,128,1,D, , , , ,space,2500,2.5,J H,001,2021-08-19_15h40.03.798,natb3,2021.2.3,Win32,59.99160118,610d9094f6a4a359eda594e6,611e07ecdcc96256ae8d5b80,611e6d2bc040d9f523901f24,0.4954,
,,,,space,,0,120,120,28,1,V, , , , ,space,1500,1.5,J H,001,2021-08-19_15h40.03.798,natb3,2021.2.3,Win32,59.99160118,610d9094f6a4a359eda594e6,611e07ecdcc96256ae8d5b80,611e6d2bc040d9f523901f24,0.362,
,,,,,,0,121,121,295,1,X,8,7,5, ,,2500,2.5,J H,001,2021-08-19_15h40.03.798,natb3,2021.2.3,Win32,59.99160118,610d9094f6a4a359eda594e6,611e07ecdcc96256ae8d5b80,611e6d2bc040d9f523901f24,,
,,,,space,,0,122,122,25,1,Z, , , , ,space,2500,2.5,J H,001,2021-08-19_15h40.03.798,natb3,2021.2.3,Win32,59.99160118,610d9094f6a4a359eda594e6,611e07ecdcc96256ae8d5b80,611e6d2bc040d9f523901f24,0.5266,
,,,,space,,0,123,123,160,1,D, , , , ,space,1500,1.5,J H,001,2021-08-19_15h40.03.798,natb3,2021.2.3,Win32,59.99160118,610d9094f6a4a359eda594e6,611e07ecdcc96256ae8d5b80,611e6d2bc040d9f523901f24,0.6189,
,,,,space,,0,124,124,124,1,P, , , , ,space,2000,2,J H,001,2021-08-19_15h40.03.798,natb3,2021.2.3,Win32,59.99160118,610d9094f6a4a359eda594e6,611e07ecdcc96256ae8d5b80,611e6d2bc040d9f523901f24,0.6459,
,,,,space,,0,125,125,210,1,M, , , , ,space,1500,1.5,J H,001,2021-08-19_15h40.03.798,natb3,2021.2.3,Win32,59.99160118,610d9094f6a4a359eda594e6,611e07ecdcc96256ae8d5b80,611e6d2bc040d9f523901f24,0.3719,
,,,,space,,0,126,126,219,1,Y, , , , ,space,2000,2,J H,001,2021-08-19_15h40.03.798,natb3,2021.2.3,Win32,59.99160118,610d9094f6a4a359eda594e6,611e07ecdcc96256ae8d5b80,611e6d2bc040d9f523901f24,0.3634,
,,,,,,0,127,127,211,1,X, , , , ,,2500,2.5,J H,001,2021-08-19_15h40.03.798,natb3,2021.2.3,Win32,59.99160118,610d9094f6a4a359eda594e6,611e07ecdcc96256ae8d5b80,611e6d2bc040d9f523901f24,,
,,,,space,,0,128,128,100,1,M, , , , ,space,2000,2,J H,001,2021-08-19_15h40.03.798,natb3,2021.2.3,Win32,59.99160118,610d9094f6a4a359eda594e6,611e07ecdcc96256ae8d5b80,611e6d2bc040d9f523901f24,0.3592,
,,,,,,0,129,129,96,1,X, , , , ,,1500,1.5,J H,001,2021-08-19_15h40.03.798,natb3,2021.2.3,Win32,59.99160118,610d9094f6a4a359eda594e6,611e07ecdcc96256ae8d5b80,611e6d2bc040d9f523901f24,,
,,,,,,0,130,130,129,1,X,2,3,5, ,,1500,1.5,J H,001,2021-08-19_15h40.03.798,natb3,2021.2.3,Win32,59.99160118,610d9094f6a4a359eda594e6,611e07ecdcc96256ae8d5b80,611e6d2bc040d9f523901f24,,
,,,,space,,0,131,131,237,1,S, , , , ,space,1500,1.5,J H,001,2021-08-19_15h40.03.798,natb3,2021.2.3,Win32,59.99160118,610d9094f6a4a359eda594e6,611e07ecdcc96256ae8d5b80,611e6d2bc040d9f523901f24,0.4815,
,,,,,,0,132,132,297,1,U, , , , ,space,2000,2,J H,001,2021-08-19_15h40.03.798,natb3,2021.2.3,Win32,59.99160118,610d9094f6a4a359eda594e6,611e07ecdcc96256ae8d5b80,611e6d2bc040d9f523901f24,,
,,,,space,,0,133,133,34,1,Q, , , , ,space,2500,2.5,J H,001,2021-08-19_15h40.03.798,natb3,2021.2.3,Win32,59.99160118,610d9094f6a4a359eda594e6,611e07ecdcc96256ae8d5b80,611e6d2bc040d9f523901f24,0.4783,
,,,,,,0,134,134,31,1,X, , , , ,,1500,1.5,J H,001,2021-08-19_15h40.03.798,natb3,2021.2.3,Win32,59.99160118,610d9094f6a4a359eda594e6,611e07ecdcc96256ae8d5b80,611e6d2bc040d9f523901f24,,
,,,,space,,0,135,135,21,1,J, , , , ,space,1500,1.5,J H,001,2021-08-19_15h40.03.798,natb3,2021.2.3,Win32,59.99160118,610d9094f6a4a359eda594e6,611e07ecdcc96256ae8d5b80,611e6d2bc040d9f523901f24,0.395,
,,,,space,,0,136,136,119,1,Y, , , , ,space,2500,2.5,J H,001,2021-08-19_15h40.03.798,natb3,2021.2.3,Win32,59.99160118,610d9094f6a4a359eda594e6,611e07ecdcc96256ae8d5b80,611e6d2bc040d9f523901f24,0.7988,
,,,,,,0,137,137,226,1,R, , , , ,space,2000,2,J H,001,2021-08-19_15h40.03.798,natb3,2021.2.3,Win32,59.99160118,610d9094f6a4a359eda594e6,611e07ecdcc96256ae8d5b80,611e6d2bc040d9f523901f24,,
,,,,space,,0,138,138,298,1,I, , , , ,space,2000,2,J H,001,2021-08-19_15h40.03.798,natb3,2021.2.3,Win32,59.99160118,610d9094f6a4a359eda594e6,611e07ecdcc96256ae8d5b80,611e6d2bc040d9f523901f24,0.8776,
,,,,,,0,139,139,322,1,X, , ,1,6,,2000,2,J H,001,2021-08-19_15h40.03.798,natb3,2021.2.3,Win32,59.99160118,610d9094f6a4a359eda594e6,611e07ecdcc96256ae8d5b80,611e6d2bc040d9f523901f24,,
,,,,space,,0,140,140,16,1,D, , , , ,space,1500,1.5,J H,001,2021-08-19_15h40.03.798,natb3,2021.2.3,Win32,59.99160118,610d9094f6a4a359eda594e6,611e07ecdcc96256ae8d5b80,611e6d2bc040d9f523901f24,0.4289,
,,,,space,,0,141,141,143,1,M, , , , ,space,2500,2.5,J H,001,2021-08-19_15h40.03.798,natb3,2021.2.3,Win32,59.99160118,610d9094f6a4a359eda594e6,611e07ecdcc96256ae8d5b80,611e6d2bc040d9f523901f24,0.7263,
,,,,space,,0,142,142,79,1,P, , , , ,space,2000,2,J H,001,2021-08-19_15h40.03.798,natb3,2021.2.3,Win32,59.99160118,610d9094f6a4a359eda594e6,611e07ecdcc96256ae8d5b80,611e6d2bc040d9f523901f24,0.8006,
,,,,space,,0,143,143,309,1,H, , , , ,space,2500,2.5,J H,001,2021-08-19_15h40.03.798,natb3,2021.2.3,Win32,59.99160118,610d9094f6a4a359eda594e6,611e07ecdcc96256ae8d5b80,611e6d2bc040d9f523901f24,0.5308,
,,,,,,0,144,144,32,1,M, , , , ,space,1500,1.5,J H,001,2021-08-19_15h40.03.798,natb3,2021.2.3,Win32,59.99160118,610d9094f6a4a359eda594e6,611e07ecdcc96256ae8d5b80,611e6d2bc040d9f523901f24,,
,,,,space,,0,145,145,267,1,P, , , , ,space,2000,2,J H,001,2021-08-19_15h40.03.798,natb3,2021.2.3,Win32,59.99160118,610d9094f6a4a359eda594e6,611e07ecdcc96256ae8d5b80,611e6d2bc040d9f523901f24,0.848,
,,,,,,0,146,146,171,1,X, , , , ,,1500,1.5,J H,001,2021-08-19_15h40.03.798,natb3,2021.2.3,Win32,59.99160118,610d9094f6a4a359eda594e6,611e07ecdcc96256ae8d5b80,611e6d2bc040d9f523901f24,,
,,,,space,,0,147,147,40,1,T, , , , ,space,1500,1.5,J H,001,2021-08-19_15h40.03.798,natb3,2021.2.3,Win32,59.99160118,610d9094f6a4a359eda594e6,611e07ecdcc96256ae8d5b80,611e6d2bc040d9f523901f24,0.3613,
,,,,,,0,148,148,187,1,X, ,3,7,4,,1500,1.5,J H,001,2021-08-19_15h40.03.798,natb3,2021.2.3,Win32,59.99160118,610d9094f6a4a359eda594e6,611e07ecdcc96256ae8d5b80,611e6d2bc040d9f523901f24,,
,,,,,,0,149,149,258,1,E, , , , ,space,1500,1.5,J H,001,2021-08-19_15h40.03.798,natb3,2021.2.3,Win32,59.99160118,610d9094f6a4a359eda594e6,611e07ecdcc96256ae8d5b80,611e6d2bc040d9f523901f24,,
,,,,,,0,150,150,68,1,W, , , , ,space,2500,2.5,J H,001,2021-08-19_15h40.03.798,natb3,2021.2.3,Win32,59.99160118,610d9094f6a4a359eda594e6,611e07ecdcc96256ae8d5b80,611e6d2bc040d9f523901f24,,
,,,,space,,0,151,151,113,1,W, , , , ,space,2500,2.5,J H,001,2021-08-19_15h40.03.798,natb3,2021.2.3,Win32,59.99160118,610d9094f6a4a359eda594e6,611e07ecdcc96256ae8d5b80,611e6d2bc040d9f523901f24,0.8737,
,,,,space,,0,152,152,304,1,S, , , , ,space,2000,2,J H,001,2021-08-19_15h40.03.798,natb3,2021.2.3,Win32,59.99160118,610d9094f6a4a359eda594e6,611e07ecdcc96256ae8d5b80,611e6d2bc040d9f523901f24,0.552,
,,,,space,,0,153,153,123,1,O, , , , ,space,1500,1.5,J H,001,2021-08-19_15h40.03.798,natb3,2021.2.3,Win32,59.99160118,610d9094f6a4a359eda594e6,611e07ecdcc96256ae8d5b80,611e6d2bc040d9f523901f24,0.4748,
,,,,,,0,154,154,27,1,X,5, ,1,3,,1500,1.5,J H,001,2021-08-19_15h40.03.798,natb3,2021.2.3,Win32,59.99160118,610d9094f6a4a359eda594e6,611e07ecdcc96256ae8d5b80,611e6d2bc040d9f523901f24,,
,,,,space,,0,155,155,228,1,Y, , , , ,space,2000,2,J H,001,2021-08-19_15h40.03.798,natb3,2021.2.3,Win32,59.99160118,610d9094f6a4a359eda594e6,611e07ecdcc96256ae8d5b80,611e6d2bc040d9f523901f24,0.3828,
,,,,space,,0,156,156,81,1,S, , , , ,space,2000,2,J H,001,2021-08-19_15h40.03.798,natb3,2021.2.3,Win32,59.99160118,610d9094f6a4a359eda594e6,611e07ecdcc96256ae8d5b80,611e6d2bc040d9f523901f24,0.3981,
,,,,space,,0,157,157,112,1,Q, , , , ,space,2500,2.5,J H,001,2021-08-19_15h40.03.798,natb3,2021.2.3,Win32,59.99160118,610d9094f6a4a359eda594e6,611e07ecdcc96256ae8d5b80,611e6d2bc040d9f523901f24,0.3518,
,,,,,,0,158,158,51,1,X,7,5,8, ,,1500,1.5,J H,001,2021-08-19_15h40.03.798,natb3,2021.2.3,Win32,59.99160118,610d9094f6a4a359eda594e6,611e07ecdcc96256ae8d5b80,611e6d2bc040d9f523901f24,,
,,,,,,0,159,159,108,1,Y, , , , ,space,2500,2.5,J H,001,2021-08-19_15h40.03.798,natb3,2021.2.3,Win32,59.99160118,610d9094f6a4a359eda594e6,611e07ecdcc96256ae8d5b80,611e6d2bc040d9f523901f24,,
,,,,space,,0,160,160,286,1,N, , , , ,space,1500,1.5,J H,001,2021-08-19_15h40.03.798,natb3,2021.2.3,Win32,59.99160118,610d9094f6a4a359eda594e6,611e07ecdcc96256ae8d5b80,611e6d2bc040d9f523901f24,0.9383,
,,,,,,0,161,161,320,1,B, , , , ,space,1500,1.5,J H,001,2021-08-19_15h40.03.798,natb3,2021.2.3,Win32,59.99160118,610d9094f6a4a359eda594e6,611e07ecdcc96256ae8d5b80,611e6d2bc040d9f523901f24,,
,,,,,,0,162,162,290,1,W, , , , ,space,1500,1.5,J H,001,2021-08-19_15h40.03.798,natb3,2021.2.3,Win32,59.99160118,610d9094f6a4a359eda594e6,611e07ecdcc96256ae8d5b80,611e6d2bc040d9f523901f24,,
,,,,space,,0,163,163,231,1,I, , , , ,space,2500,2.5,J H,001,2021-08-19_15h40.03.798,natb3,2021.2.3,Win32,59.99160118,610d9094f6a4a359eda594e6,611e07ecdcc96256ae8d5b80,611e6d2bc040d9f523901f24,0.4685,
,,,,,,0,164,164,213,1,X, , , , ,,2500,2.5,J H,001,2021-08-19_15h40.03.798,natb3,2021.2.3,Win32,59.99160118,610d9094f6a4a359eda594e6,611e07ecdcc96256ae8d5b80,611e6d2bc040d9f523901f24,,
,,,,space,,0,165,165,296,1,Y, , , , ,space,2500,2.5,J H,001,2021-08-19_15h40.03.798,natb3,2021.2.3,Win32,59.99160118,610d9094f6a4a359eda594e6,611e07ecdcc96256ae8d5b80,611e6d2bc040d9f523901f24,0.7845,
,,,,,,0,166,166,94,1,C, , , , ,space,2000,2,J H,001,2021-08-19_15h40.03.798,natb3,2021.2.3,Win32,59.99160118,610d9094f6a4a359eda594e6,611e07ecdcc96256ae8d5b80,611e6d2bc040d9f523901f24,,
,,,,space,space,0,167,167,5,1,T, , , , ,space,2000,2,J H,001,2021-08-19_15h40.03.798,natb3,2021.2.3,Win32,59.99160118,610d9094f6a4a359eda594e6,611e07ecdcc96256ae8d5b80,611e6d2bc040d9f523901f24,0.8656,64.6581
,,,,space,,0,168,168,136,1,Z, , , , ,space,2500,2.5,J H,001,2021-08-19_15h40.03.798,natb3,2021.2.3,Win32,59.99160118,610d9094f6a4a359eda594e6,611e07ecdcc96256ae8d5b80,611e6d2bc040d9f523901f24,0.4974,
,,,,space,,0,169,169,135,1,K, , , , ,space,1500,1.5,J H,001,2021-08-19_15h40.03.798,natb3,2021.2.3,Win32,59.99160118,610d9094f6a4a359eda594e6,611e07ecdcc96256ae8d5b80,611e6d2bc040d9f523901f24,0.4152,
,,,,space,,0,170,170,115,1,R, , , , ,space,1500,1.5,J H,001,2021-08-19_15h40.03.798,natb3,2021.2.3,Win32,59.99160118,610d9094f6a4a359eda594e6,611e07ecdcc96256ae8d5b80,611e6d2bc040d9f523901f24,0.3108,
,,,,space,,0,171,171,278,1,J, , , , ,space,2000,2,J H,001,2021-08-19_15h40.03.798,natb3,2021.2.3,Win32,59.99160118,610d9094f6a4a359eda594e6,611e07ecdcc96256ae8d5b80,611e6d2bc040d9f523901f24,0.2817,
,,,,space,,0,172,172,97,1,B, , , , ,space,2500,2.5,J H,001,2021-08-19_15h40.03.798,natb3,2021.2.3,Win32,59.99160118,610d9094f6a4a359eda594e6,611e07ecdcc96256ae8d5b80,611e6d2bc040d9f523901f24,0.3228,
,,,,,,0,173,173,305,1,X, , , , ,,1500,1.5,J H,001,2021-08-19_15h40.03.798,natb3,2021.2.3,Win32,59.99160118,610d9094f6a4a359eda594e6,611e07ecdcc96256ae8d5b80,611e6d2bc040d9f523901f24,,
,,,,space,,0,174,174,274,1,F, , , , ,space,2000,2,J H,001,2021-08-19_15h40.03.798,natb3,2021.2.3,Win32,59.99160118,610d9094f6a4a359eda594e6,611e07ecdcc96256ae8d5b80,611e6d2bc040d9f523901f24,0.4242,
,,,,space,,0,175,175,214,1,W, , , , ,space,2000,2,J H,001,2021-08-19_15h40.03.798,natb3,2021.2.3,Win32,59.99160118,610d9094f6a4a359eda594e6,611e07ecdcc96256ae8d5b80,611e6d2bc040d9f523901f24,0.924,
,,,,space,,0,176,176,140,1,B, , , , ,space,2500,2.5,J H,001,2021-08-19_15h40.03.798,natb3,2021.2.3,Win32,59.99160118,610d9094f6a4a359eda594e6,611e07ecdcc96256ae8d5b80,611e6d2bc040d9f523901f24,0.7145,
,,,,space,,0,177,177,196,1,F, , , , ,space,1500,1.5,J H,001,2021-08-19_15h40.03.798,natb3,2021.2.3,Win32,59.99160118,610d9094f6a4a359eda594e6,611e07ecdcc96256ae8d5b80,611e6d2bc040d9f523901f24,0.4877,
,,,,space,,0,178,178,49,1,S, , , , ,space,1500,1.5,J H,001,2021-08-19_15h40.03.798,natb3,2021.2.3,Win32,59.99160118,610d9094f6a4a359eda594e6,611e07ecdcc96256ae8d5b80,611e6d2bc040d9f523901f24,0.4239,
,,,,,,0,179,179,141,1,X,1, ,4,6,,1500,1.5,J H,001,2021-08-19_15h40.03.798,natb3,2021.2.3,Win32,59.99160118,610d9094f6a4a359eda594e6,611e07ecdcc96256ae8d5b80,611e6d2bc040d9f523901f24,,
,,,,space,,0,180,180,62,1,V, , , , ,space,1500,1.5,J H,001,2021-08-19_15h40.03.798,natb3,2021.2.3,Win32,59.99160118,610d9094f6a4a359eda594e6,611e07ecdcc96256ae8d5b80,611e6d2bc040d9f523901f24,0.5184,
,,,,space,,0,181,181,271,1,X, , , , ,,2500,2.5,J H,001,2021-08-19_15h40.03.798,natb3,2021.2.3,Win32,59.99160118,610d9094f6a4a359eda594e6,611e07ecdcc96256ae8d5b80,611e6d2bc040d9f523901f24,0.8854,
,,,,space,,0,182,182,284,1,V, , , , ,space,2500,2.5,J H,001,2021-08-19_15h40.03.798,natb3,2021.2.3,Win32,59.99160118,610d9094f6a4a359eda594e6,611e07ecdcc96256ae8d5b80,611e6d2bc040d9f523901f24,0.4209,
,,,,,,0,183,183,299,1,X, , , , ,,2500,2.5,J H,001,2021-08-19_15h40.03.798,natb3,2021.2.3,Win32,59.99160118,610d9094f6a4a359eda594e6,611e07ecdcc96256ae8d5b80,611e6d2bc040d9f523901f24,,
,,,,,,0,184,184,93,1,X,5, ,7, ,,2500,2.5,J H,001,2021-08-19_15h40.03.798,natb3,2021.2.3,Win32,59.99160118,610d9094f6a4a359eda594e6,611e07ecdcc96256ae8d5b80,611e6d2bc040d9f523901f24,,
,,,,space,,0,185,185,91,1,L, , , , ,space,2000,2,J H,001,2021-08-19_15h40.03.798,natb3,2021.2.3,Win32,59.99160118,610d9094f6a4a359eda594e6,611e07ecdcc96256ae8d5b80,611e6d2bc040d9f523901f24,0.6808,
,,,,,,0,186,186,85,1,F, , , , ,space,2500,2.5,J H,001,2021-08-19_15h40.03.798,natb3,2021.2.3,Win32,59.99160118,610d9094f6a4a359eda594e6,611e07ecdcc96256ae8d5b80,611e6d2bc040d9f523901f24,,
,,,,,,0,187,187,272,1,D, , , , ,space,2000,2,J H,001,2021-08-19_15h40.03.798,natb3,2021.2.3,Win32,59.99160118,610d9094f6a4a359eda594e6,611e07ecdcc96256ae8d5b80,611e6d2bc040d9f523901f24,,
,,,,space,,0,188,188,77,1,O, , , , ,space,2000,2,J H,001,2021-08-19_15h40.03.798,natb3,2021.2.3,Win32,59.99160118,610d9094f6a4a359eda594e6,611e07ecdcc96256ae8d5b80,611e6d2bc040d9f523901f24,0.4105,
,,,,space,,0,189,189,20,1,H, , , , ,space,1500,1.5,J H,001,2021-08-19_15h40.03.798,natb3,2021.2.3,Win32,59.99160118,610d9094f6a4a359eda594e6,611e07ecdcc96256ae8d5b80,611e6d2bc040d9f523901f24,0.4906,
,,,,space,,0,190,190,221,1,I, , , , ,space,2500,2.5,J H,001,2021-08-19_15h40.03.798,natb3,2021.2.3,Win32,59.99160118,610d9094f6a4a359eda594e6,611e07ecdcc96256ae8d5b80,611e6d2bc040d9f523901f24,0.6287,
,,,,space,,0,191,191,14,1,S, , , , ,space,2500,2.5,J H,001,2021-08-19_15h40.03.798,natb3,2021.2.3,Win32,59.99160118,610d9094f6a4a359eda594e6,611e07ecdcc96256ae8d5b80,611e6d2bc040d9f523901f24,0.3793,
,,,,,,0,192,192,191,1,X,1, ,3,4,,2500,2.5,J H,001,2021-08-19_15h40.03.798,natb3,2021.2.3,Win32,59.99160118,610d9094f6a4a359eda594e6,611e07ecdcc96256ae8d5b80,611e6d2bc040d9f523901f24,,
,,,,,,0,193,193,308,1,G, , , , ,space,1500,1.5,J H,001,2021-08-19_15h40.03.798,natb3,2021.2.3,Win32,59.99160118,610d9094f6a4a359eda594e6,611e07ecdcc96256ae8d5b80,611e6d2bc040d9f523901f24,,
,,,,space,,0,194,194,206,1,V, , , , ,space,2000,2,J H,001,2021-08-19_15h40.03.798,natb3,2021.2.3,Win32,59.99160118,610d9094f6a4a359eda594e6,611e07ecdcc96256ae8d5b80,611e6d2bc040d9f523901f24,0.6779,
,,,,space,,0,195,195,183,1,R, , , , ,space,1500,1.5,J H,001,2021-08-19_15h40.03.798,natb3,2021.2.3,Win32,59.99160118,610d9094f6a4a359eda594e6,611e07ecdcc96256ae8d5b80,611e6d2bc040d9f523901f24,0.4185,
,,,,,,0,196,196,218,1,X,1,3, ,8,,1500,1.5,J H,001,2021-08-19_15h40.03.798,natb3,2021.2.3,Win32,59.99160118,610d9094f6a4a359eda594e6,611e07ecdcc96256ae8d5b80,611e6d2bc040d9f523901f24,,
,,,,space,,0,197,197,261,1,T, , , , ,space,2000,2,J H,001,2021-08-19_15h40.03.798,natb3,2021.2.3,Win32,59.99160118,610d9094f6a4a359eda594e6,611e07ecdcc96256ae8d5b80,611e6d2bc040d9f523901f24,0.6369,
,,,,space,,0,198,198,269,1,A, , , , ,space,2500,2.5,J H,001,2021-08-19_15h40.03.798,natb3,2021.2.3,Win32,59.99160118,610d9094f6a4a359eda594e6,611e07ecdcc96256ae8d5b80,611e6d2bc040d9f523901f24,0.5742,
,,,,space,,0,199,199,26,1,C, , , , ,space,2000,2,J H,001,2021-08-19_15h40.03.798,natb3,2021.2.3,Win32,59.99160118,610d9094f6a4a359eda594e6,611e07ecdcc96256ae8d5b80,611e6d2bc040d9f523901f24,0.418,
,,,,space,,0,200,200,29,1,B, , , , ,space,1500,1.5,J H,001,2021-08-19_15h40.03.798,natb3,2021.2.3,Win32,59.99160118,610d9094f6a4a359eda594e6,611e07ecdcc96256ae8d5b80,611e6d2bc040d9f523901f24,0.5179,
,,,,,,0,201,201,167,1,K, , , , ,space,1500,1.5,J H,001,2021-08-19_15h40.03.798,natb3,2021.2.3,Win32,59.99160118,610d9094f6a4a359eda594e6,611e07ecdcc96256ae8d5b80,611e6d2bc040d9f523901f24,,
,,,,space,,0,202,202,13,1,A, , , , ,space,2000,2,J H,001,2021-08-19_15h40.03.798,natb3,2021.2.3,Win32,59.99160118,610d9094f6a4a359eda594e6,611e07ecdcc96256ae8d5b80,611e6d2bc040d9f523901f24,0.4122,
,,,,space,,0,203,203,150,1,T, , , , ,space,2500,2.5,J H,001,2021-08-19_15h40.03.798,natb3,2021.2.3,Win32,59.99160118,610d9094f6a4a359eda594e6,611e07ecdcc96256ae8d5b80,611e6d2bc040d9f523901f24,0.4753,
,,,,,,0,204,204,233,1,X, ,2, ,5,,1500,1.5,J H,001,2021-08-19_15h40.03.798,natb3,2021.2.3,Win32,59.99160118,610d9094f6a4a359eda594e6,611e07ecdcc96256ae8d5b80,611e6d2bc040d9f523901f24,,
,,,,,,0,205,205,66,1,X, ,4,7, ,,2000,2,J H,001,2021-08-19_15h40.03.798,natb3,2021.2.3,Win32,59.99160118,610d9094f6a4a359eda594e6,611e07ecdcc96256ae8d5b80,611e6d2bc040d9f523901f24,,
,,,,space,,0,206,206,147,1,E, , , , ,space,2000,2,J H,001,2021-08-19_15h40.03.798,natb3,2021.2.3,Win32,59.99160118,610d9094f6a4a359eda594e6,611e07ecdcc96256ae8d5b80,611e6d2bc040d9f523901f24,0.6741,
,,,,space,,0,207,207,152,1,U, , , , ,space,2000,2,J H,001,2021-08-19_15h40.03.798,natb3,2021.2.3,Win32,59.99160118,610d9094f6a4a359eda594e6,611e07ecdcc96256ae8d5b80,611e6d2bc040d9f523901f24,0.4799,
,,,,,,0,208,208,200,1,X,7, ,5,3,,1500,1.5,J H,001,2021-08-19_15h40.03.798,natb3,2021.2.3,Win32,59.99160118,610d9094f6a4a359eda594e6,611e07ecdcc96256ae8d5b80,611e6d2bc040d9f523901f24,,
,,,,space,,0,209,209,323,1,M, , , , ,space,2500,2.5,J H,001,2021-08-19_15h40.03.798,natb3,2021.2.3,Win32,59.99160118,610d9094f6a4a359eda594e6,611e07ecdcc96256ae8d5b80,611e6d2bc040d9f523901f24,0.7047,
,,,,,,0,210,210,335,1,P,,,,,space,1500,1.5,J H,001,2021-08-19_15h40.03.798,natb3,2021.2.3,Win32,59.99160118,610d9094f6a4a359eda594e6,611e07ecdcc96256ae8d5b80,611e6d2bc040d9f523901f24,,
,,,,space,,0,211,211,177,1,M, , , , ,space,2500,2.5,J H,001,2021-08-19_15h40.03.798,natb3,2021.2.3,Win32,59.99160118,610d9094f6a4a359eda594e6,611e07ecdcc96256ae8d5b80,611e6d2bc040d9f523901f24,0.3825,
,,,,space,,0,212,212,105,1,R, , , , ,space,2500,2.5,J H,001,2021-08-19_15h40.03.798,natb3,2021.2.3,Win32,59.99160118,610d9094f6a4a359eda594e6,611e07ecdcc96256ae8d5b80,611e6d2bc040d9f523901f24,0.3867,
,,,,space,,0,213,213,314,1,L, , , , ,space,1500,1.5,J H,001,2021-08-19_15h40.03.798,natb3,2021.2.3,Win32,59.99160118,610d9094f6a4a359eda594e6,611e07ecdcc96256ae8d5b80,611e6d2bc040d9f523901f24,0.511,
,,,,space,,0,214,214,17,1,F, , , , ,space,2500,2.5,J H,001,2021-08-19_15h40.03.798,natb3,2021.2.3,Win32,59.99160118,610d9094f6a4a359eda594e6,611e07ecdcc96256ae8d5b80,611e6d2bc040d9f523901f24,0.408,
,,,,space,,0,215,215,158,1,X, , , , ,,1500,1.5,J H,001,2021-08-19_15h40.03.798,natb3,2021.2.3,Win32,59.99160118,610d9094f6a4a359eda594e6,611e07ecdcc96256ae8d5b80,611e6d2bc040d9f523901f24,0.3847,
,,,,space,,0,216,216,63,1,B, , , , ,space,2000,2,J H,001,2021-08-19_15h40.03.798,natb3,2021.2.3,Win32,59.99160118,610d9094f6a4a359eda594e6,611e07ecdcc96256ae8d5b80,611e6d2bc040d9f523901f24,0.5849,
,,,,space,,0,217,217,178,1,Q, , , , ,space,1500,1.5,J H,001,2021-08-19_15h40.03.798,natb3,2021.2.3,Win32,59.99160118,610d9094f6a4a359eda594e6,611e07ecdcc96256ae8d5b80,611e6d2bc040d9f523901f24,0.4951,
,,,,space,,0,218,218,126,1,A, , , , ,space,2500,2.5,J H,001,2021-08-19_15h40.03.798,natb3,2021.2.3,Win32,59.99160118,610d9094f6a4a359eda594e6,611e07ecdcc96256ae8d5b80,611e6d2bc040d9f523901f24,0.5296,
,,,,space,,0,219,219,247,1,Z, , , , ,space,1500,1.5,J H,001,2021-08-19_15h40.03.798,natb3,2021.2.3,Win32,59.99160118,610d9094f6a4a359eda594e6,611e07ecdcc96256ae8d5b80,611e6d2bc040d9f523901f24,0.6978,
,,,,space,,0,220,220,161,1,F, , , , ,space,1500,1.5,J H,001,2021-08-19_15h40.03.798,natb3,2021.2.3,Win32,59.99160118,610d9094f6a4a359eda594e6,611e07ecdcc96256ae8d5b80,611e6d2bc040d9f523901f24,0.5311,
,,,,,,0,221,221,182,1,X, , , , ,,1500,1.5,J H,001,2021-08-19_15h40.03.798,natb3,2021.2.3,Win32,59.99160118,610d9094f6a4a359eda594e6,611e07ecdcc96256ae8d5b80,611e6d2bc040d9f523901f24,,
,,,,space,,0,222,222,172,1,C, , , , ,space,1500,1.5,J H,001,2021-08-19_15h40.03.798,natb3,2021.2.3,Win32,59.99160118,610d9094f6a4a359eda594e6,611e07ecdcc96256ae8d5b80,611e6d2bc040d9f523901f24,0.417,
,,,,,,0,223,223,313,1,X, , , , ,,2500,2.5,J H,001,2021-08-19_15h40.03.798,natb3,2021.2.3,Win32,59.99160118,610d9094f6a4a359eda594e6,611e07ecdcc96256ae8d5b80,611e6d2bc040d9f523901f24,,
,,,,space,,0,224,224,334,1,O, , , , ,space,1500,1.5,J H,001,2021-08-19_15h40.03.798,natb3,2021.2.3,Win32,59.99160118,610d9094f6a4a359eda594e6,611e07ecdcc96256ae8d5b80,611e6d2bc040d9f523901f24,0.8094,
,,,,,,0,225,225,288,1,M, , , , ,space,1500,1.5,J H,001,2021-08-19_15h40.03.798,natb3,2021.2.3,Win32,59.99160118,610d9094f6a4a359eda594e6,611e07ecdcc96256ae8d5b80,611e6d2bc040d9f523901f24,,
,,,,space,,0,226,226,42,1,U, , , , ,space,1500,1.5,J H,001,2021-08-19_15h40.03.798,natb3,2021.2.3,Win32,59.99160118,610d9094f6a4a359eda594e6,611e07ecdcc96256ae8d5b80,611e6d2bc040d9f523901f24,0.4691,
,,,,space,,0,227,227,24,1,L, , , , ,space,2500,2.5,J H,001,2021-08-19_15h40.03.798,natb3,2021.2.3,Win32,59.99160118,610d9094f6a4a359eda594e6,611e07ecdcc96256ae8d5b80,611e6d2bc040d9f523901f24,0.79,
,,,,space,,0,228,228,101,1,Q, , , , ,space,2500,2.5,J H,001,2021-08-19_15h40.03.798,natb3,2021.2.3,Win32,59.99160118,610d9094f6a4a359eda594e6,611e07ecdcc96256ae8d5b80,611e6d2bc040d9f523901f24,0.5994,
,,,,,,0,229,229,139,1,V, , , , ,space,2000,2,J H,001,2021-08-19_15h40.03.798,natb3,2021.2.3,Win32,59.99160118,610d9094f6a4a359eda594e6,611e07ecdcc96256ae8d5b80,611e6d2bc040d9f523901f24,,
,,,,space,,0,230,230,67,1,Q, , , , ,space,2000,2,J H,001,2021-08-19_15h40.03.798,natb3,2021.2.3,Win32,59.99160118,610d9094f6a4a359eda594e6,611e07ecdcc96256ae8d5b80,611e6d2bc040d9f523901f24,0.3363,
,,,,,,0,231,231,71,1,R, , , , ,space,2500,2.5,J H,001,2021-08-19_15h40.03.798,natb3,2021.2.3,Win32,59.99160118,610d9094f6a4a359eda594e6,611e07ecdcc96256ae8d5b80,611e6d2bc040d9f523901f24,,
,,,,space,,0,232,232,38,1,R, , , , ,space,2500,2.5,J H,001,2021-08-19_15h40.03.798,natb3,2021.2.3,Win32,59.99160118,610d9094f6a4a359eda594e6,611e07ecdcc96256ae8d5b80,611e6d2bc040d9f523901f24,0.6028,
,,,,,,0,233,233,30,1,N, , , , ,space,2500,2.5,J H,001,2021-08-19_15h40.03.798,natb3,2021.2.3,Win32,59.99160118,610d9094f6a4a359eda594e6,611e07ecdcc96256ae8d5b80,611e6d2bc040d9f523901f24,,
,,,,,,0,234,234,248,1,X, ,1,5, ,,1500,1.5,J H,001,2021-08-19_15h40.03.798,natb3,2021.2.3,Win32,59.99160118,610d9094f6a4a359eda594e6,611e07ecdcc96256ae8d5b80,611e6d2bc040d9f523901f24,,
,,,,,,0,235,235,83,1,D, , , , ,space,2000,2,J H,001,2021-08-19_15h40.03.798,natb3,2021.2.3,Win32,59.99160118,610d9094f6a4a359eda594e6,611e07ecdcc96256ae8d5b80,611e6d2bc040d9f523901f24,,
,,,,space,,0,236,236,220,1,U, , , , ,space,2500,2.5,J H,001,2021-08-19_15h40.03.798,natb3,2021.2.3,Win32,59.99160118,610d9094f6a4a359eda594e6,611e07ecdcc96256ae8d5b80,611e6d2bc040d9f523901f24,0.6205,
,,,,space,,0,237,237,215,1,E, , , , ,space,2500,2.5,J H,001,2021-08-19_15h40.03.798,natb3,2021.2.3,Win32,59.99160118,610d9094f6a4a359eda594e6,611e07ecdcc96256ae8d5b80,611e6d2bc040d9f523901f24,0.4945,
,,,,space,,0,238,238,61,1,C, , , , ,space,2000,2,J H,001,2021-08-19_15h40.03.798,natb3,2021.2.3,Win32,59.99160118,610d9094f6a4a359eda594e6,611e07ecdcc96256ae8d5b80,611e6d2bc040d9f523901f24,0.3917,
,,,,space,,0,239,239,316,1,Z, , , , ,space,1500,1.5,J H,001,2021-08-19_15h40.03.798,natb3,2021.2.3,Win32,59.99160118,610d9094f6a4a359eda594e6,611e07ecdcc96256ae8d5b80,611e6d2bc040d9f523901f24,0.7816,
,,,,space,,0,240,240,159,1,S, , , , ,space,2500,2.5,J H,001,2021-08-19_15h40.03.798,natb3,2021.2.3,Win32,59.99160118,610d9094f6a4a359eda594e6,611e07ecdcc96256ae8d5b80,611e6d2bc040d9f523901f24,0.3636,
,,,,space,,0,241,241,256,1,Q, , , , ,space,2000,2,J H,001,2021-08-19_15h40.03.798,natb3,2021.2.3,Win32,59.99160118,610d9094f6a4a359eda594e6,611e07ecdcc96256ae8d5b80,611e6d2bc040d9f523901f24,0.4189,
,,,,space,,0,242,242,293,1,R, , , , ,space,2500,2.5,J H,001,2021-08-19_15h40.03.798,natb3,2021.2.3,Win32,59.99160118,610d9094f6a4a359eda594e6,611e07ecdcc96256ae8d5b80,611e6d2bc040d9f523901f24,0.3819,
,,,,space,,0,243,243,131,1,G, , , , ,space,1500,1.5,J H,001,2021-08-19_15h40.03.798,natb3,2021.2.3,Win32,59.99160118,610d9094f6a4a359eda594e6,611e07ecdcc96256ae8d5b80,611e6d2bc040d9f523901f24,0.7815,
,,,,space,,0,244,244,330,1,T, , , , ,space,2500,2.5,J H,001,2021-08-19_15h40.03.798,natb3,2021.2.3,Win32,59.99160118,610d9094f6a4a359eda594e6,611e07ecdcc96256ae8d5b80,611e6d2bc040d9f523901f24,0.3874,
,,,,,,0,245,245,318,1,X, , , , ,,1500,1.5,J H,001,2021-08-19_15h40.03.798,natb3,2021.2.3,Win32,59.99160118,610d9094f6a4a359eda594e6,611e07ecdcc96256ae8d5b80,611e6d2bc040d9f523901f24,,
,,,,space,,0,246,246,184,1,T, , , , ,space,2000,2,J H,001,2021-08-19_15h40.03.798,natb3,2021.2.3,Win32,59.99160118,610d9094f6a4a359eda594e6,611e07ecdcc96256ae8d5b80,611e6d2bc040d9f523901f24,0.4106,
,,,,,,0,247,247,252,1,X,3, ,6,9,,2000,2,J H,001,2021-08-19_15h40.03.798,natb3,2021.2.3,Win32,59.99160118,610d9094f6a4a359eda594e6,611e07ecdcc96256ae8d5b80,611e6d2bc040d9f523901f24,,
,,,,,,0,248,248,162,1,X,1,6, ,2,,1500,1.5,J H,001,2021-08-19_15h40.03.798,natb3,2021.2.3,Win32,59.99160118,610d9094f6a4a359eda594e6,611e07ecdcc96256ae8d5b80,611e6d2bc040d9f523901f24,,
,,,,space,,0,249,249,41,1,Y, , , , ,space,2500,2.5,J H,001,2021-08-19_15h40.03.798,natb3,2021.2.3,Win32,59.99160118,610d9094f6a4a359eda594e6,611e07ecdcc96256ae8d5b80,611e6d2bc040d9f523901f24,0.9106,
,,,,space,,0,250,250,53,1,G, , , , ,space,2500,2.5,J H,001,2021-08-19_15h40.03.798,natb3,2021.2.3,Win32,59.99160118,610d9094f6a4a359eda594e6,611e07ecdcc96256ae8d5b80,611e6d2bc040d9f523901f24,0.4582,
,,,,space,,0,251,251,257,1,W, , , , ,space,2000,2,J H,001,2021-08-19_15h40.03.798,natb3,2021.2.3,Win32,59.99160118,610d9094f6a4a359eda594e6,611e07ecdcc96256ae8d5b80,611e6d2bc040d9f523901f24,0.3588,
,,,,,,0,252,252,133,1,X, ,4, ,6,,2500,2.5,J H,001,2021-08-19_15h40.03.798,natb3,2021.2.3,Win32,59.99160118,610d9094f6a4a359eda594e6,611e07ecdcc96256ae8d5b80,611e6d2bc040d9f523901f24,,
,,,,space,,0,253,253,120,1,U, , , , ,space,1500,1.5,J H,001,2021-08-19_15h40.03.798,natb3,2021.2.3,Win32,59.99160118,610d9094f6a4a359eda594e6,611e07ecdcc96256ae8d5b80,611e6d2bc040d9f523901f24,0.8099,
,,,,,,0,254,254,277,1,X,8,5, ,2,,2000,2,J H,001,2021-08-19_15h40.03.798,natb3,2021.2.3,Win32,59.99160118,610d9094f6a4a359eda594e6,611e07ecdcc96256ae8d5b80,611e6d2bc040d9f523901f24,,
,,,,space,,0,255,255,306,1,D, , , , ,space,2000,2,J H,001,2021-08-19_15h40.03.798,natb3,2021.2.3,Win32,59.99160118,610d9094f6a4a359eda594e6,611e07ecdcc96256ae8d5b80,611e6d2bc040d9f523901f24,0.4589,
,,,,space,,0,256,256,137,1,C, , , , ,space,2500,2.5,J H,001,2021-08-19_15h40.03.798,natb3,2021.2.3,Win32,59.99160118,610d9094f6a4a359eda594e6,611e07ecdcc96256ae8d5b80,611e6d2bc040d9f523901f24,0.4219,
,,,,space,,0,257,257,188,1,I, , , , ,space,2500,2.5,J H,001,2021-08-19_15h40.03.798,natb3,2021.2.3,Win32,59.99160118,610d9094f6a4a359eda594e6,611e07ecdcc96256ae8d5b80,611e6d2bc040d9f523901f24,0.3685,
,,,,space,,0,258,258,36,1,W, , , , ,space,2000,2,J H,001,2021-08-19_15h40.03.798,natb3,2021.2.3,Win32,59.99160118,610d9094f6a4a359eda594e6,611e07ecdcc96256ae8d5b80,611e6d2bc040d9f523901f24,0.3124,
,,,,space,,0,259,259,270,1,S, , , , ,space,1500,1.5,J H,001,2021-08-19_15h40.03.798,natb3,2021.2.3,Win32,59.99160118,610d9094f6a4a359eda594e6,611e07ecdcc96256ae8d5b80,611e6d2bc040d9f523901f24,0.3991,
,,,,space,,0,260,260,164,1,H, , , , ,space,2500,2.5,J H,001,2021-08-19_15h40.03.798,natb3,2021.2.3,Win32,59.99160118,610d9094f6a4a359eda594e6,611e07ecdcc96256ae8d5b80,611e6d2bc040d9f523901f24,0.3636,
,,,,,,0,261,261,287,1,X, ,2, ,9,,2000,2,J H,001,2021-08-19_15h40.03.798,natb3,2021.2.3,Win32,59.99160118,610d9094f6a4a359eda594e6,611e07ecdcc96256ae8d5b80,611e6d2bc040d9f523901f24,,
,,,,space,,0,262,262,170,1,Z, , , , ,space,2000,2,J H,001,2021-08-19_15h40.03.798,natb3,2021.2.3,Win32,59.99160118,610d9094f6a4a359eda594e6,611e07ecdcc96256ae8d5b80,611e6d2bc040d9f523901f24,0.3612,
,,,,space,,0,263,263,273,1,X, , , , ,,2000,2,J H,001,2021-08-19_15h40.03.798,natb3,2021.2.3,Win32,59.99160118,610d9094f6a4a359eda594e6,611e07ecdcc96256ae8d5b80,611e6d2bc040d9f523901f24,0.3919,
,,,,,,0,264,264,15,1,X, , , , ,,1500,1.5,J H,001,2021-08-19_15h40.03.798,natb3,2021.2.3,Win32,59.99160118,610d9094f6a4a359eda594e6,611e07ecdcc96256ae8d5b80,611e6d2bc040d9f523901f24,,
,,,,,,0,265,265,138,1,X,8,5, ,3,,2000,2,J H,001,2021-08-19_15h40.03.798,natb3,2021.2.3,Win32,59.99160118,610d9094f6a4a359eda594e6,611e07ecdcc96256ae8d5b80,611e6d2bc040d9f523901f24,,
,,,,space,,0,266,266,174,1,B, , , , ,space,2500,2.5,J H,001,2021-08-19_15h40.03.798,natb3,2021.2.3,Win32,59.99160118,610d9094f6a4a359eda594e6,611e07ecdcc96256ae8d5b80,611e6d2bc040d9f523901f24,0.7127,
,,,,space,,0,267,267,2,1,E, , , , ,space,2500,2.5,J H,001,2021-08-19_15h40.03.798,natb3,2021.2.3,Win32,59.99160118,610d9094f6a4a359eda594e6,611e07ecdcc96256ae8d5b80,611e6d2bc040d9f523901f24,0.9012,
,,,,,,0,268,268,176,1,N, , , , ,space,1500,1.5,J H,001,2021-08-19_15h40.03.798,natb3,2021.2.3,Win32,59.99160118,610d9094f6a4a359eda594e6,611e07ecdcc96256ae8d5b80,611e6d2bc040d9f523901f24,,
,,,,,,0,269,269,87,1,H, , , , ,space,1500,1.5,J H,001,2021-08-19_15h40.03.798,natb3,2021.2.3,Win32,59.99160118,610d9094f6a4a359eda594e6,611e07ecdcc96256ae8d5b80,611e6d2bc040d9f523901f24,,
,,,,,,0,270,270,46,1,X, , , , ,,2000,2,J H,001,2021-08-19_15h40.03.798,natb3,2021.2.3,Win32,59.99160118,610d9094f6a4a359eda594e6,611e07ecdcc96256ae8d5b80,611e6d2bc040d9f523901f24,,
,,,,,,0,271,271,203,1,X, , , , ,,2500,2.5,J H,001,2021-08-19_15h40.03.798,natb3,2021.2.3,Win32,59.99160118,610d9094f6a4a359eda594e6,611e07ecdcc96256ae8d5b80,611e6d2bc040d9f523901f24,,
,,,,,,0,272,272,151,1,Y, , , , ,space,2500,2.5,J H,001,2021-08-19_15h40.03.798,natb3,2021.2.3,Win32,59.99160118,610d9094f6a4a359eda594e6,611e07ecdcc96256ae8d5b80,611e6d2bc040d9f523901f24,,
,,,,space,,0,273,273,230,1,U, , , , ,space,1500,1.5,J H,001,2021-08-19_15h40.03.798,natb3,2021.2.3,Win32,59.99160118,610d9094f6a4a359eda594e6,611e07ecdcc96256ae8d5b80,611e6d2bc040d9f523901f24,0.4445,
,,,,,,0,274,274,102,1,X, ,6, , ,,1500,1.5,J H,001,2021-08-19_15h40.03.798,natb3,2021.2.3,Win32,59.99160118,610d9094f6a4a359eda594e6,611e07ecdcc96256ae8d5b80,611e6d2bc040d9f523901f24,,
,,,,,,0,275,275,3,1,R, , , , ,space,2000,2,J H,001,2021-08-19_15h40.03.798,natb3,2021.2.3,Win32,59.99160118,610d9094f6a4a359eda594e6,611e07ecdcc96256ae8d5b80,611e6d2bc040d9f523901f24,,
,,,,,,0,276,276,251,1,B, , , , ,space,1500,1.5,J H,001,2021-08-19_15h40.03.798,natb3,2021.2.3,Win32,59.99160118,610d9094f6a4a359eda594e6,611e07ecdcc96256ae8d5b80,611e6d2bc040d9f523901f24,,
,,,,,,0,277,277,317,1,C, , , , ,space,2000,2,J H,001,2021-08-19_15h40.03.798,natb3,2021.2.3,Win32,59.99160118,610d9094f6a4a359eda594e6,611e07ecdcc96256ae8d5b80,611e6d2bc040d9f523901f24,,
,,,,,,0,278,278,202,1,L, , , , ,space,2500,2.5,J H,001,2021-08-19_15h40.03.798,natb3,2021.2.3,Win32,59.99160118,610d9094f6a4a359eda594e6,611e07ecdcc96256ae8d5b80,611e6d2bc040d9f523901f24,,
,,,,space,,0,279,279,238,1,D, , , , ,space,1500,1.5,J H,001,2021-08-19_15h40.03.798,natb3,2021.2.3,Win32,59.99160118,610d9094f6a4a359eda594e6,611e07ecdcc96256ae8d5b80,611e6d2bc040d9f523901f24,0.4398,
,,,,space,,0,280,280,285,1,B, , , , ,space,1500,1.5,J H,001,2021-08-19_15h40.03.798,natb3,2021.2.3,Win32,59.99160118,610d9094f6a4a359eda594e6,611e07ecdcc96256ae8d5b80,611e6d2bc040d9f523901f24,0.8121,
,,,,,,0,281,281,84,1,X, , , , ,,2000,2,J H,001,2021-08-19_15h40.03.798,natb3,2021.2.3,Win32,59.99160118,610d9094f6a4a359eda594e6,611e07ecdcc96256ae8d5b80,611e6d2bc040d9f523901f24,,
,,,,,,0,282,282,48,1,A, , , , ,space,2500,2.5,J H,001,2021-08-19_15h40.03.798,natb3,2021.2.3,Win32,59.99160118,610d9094f6a4a359eda594e6,611e07ecdcc96256ae8d5b80,611e6d2bc040d9f523901f24,,
,,,,,,0,283,283,9,1,I, , , , ,space,1500,1.5,J H,001,2021-08-19_15h40.03.798,natb3,2021.2.3,Win32,59.99160118,610d9094f6a4a359eda594e6,611e07ecdcc96256ae8d5b80,611e6d2bc040d9f523901f24,,
,,,,,,0,284,284,227,1,T, , , , ,space,1500,1.5,J H,001,2021-08-19_15h40.03.798,natb3,2021.2.3,Win32,59.99160118,610d9094f6a4a359eda594e6,611e07ecdcc96256ae8d5b80,611e6d2bc040d9f523901f24,,
,,,,space,,0,285,285,180,1,W, , , , ,space,2000,2,J H,001,2021-08-19_15h40.03.798,natb3,2021.2.3,Win32,59.99160118,610d9094f6a4a359eda594e6,611e07ecdcc96256ae8d5b80,611e6d2bc040d9f523901f24,0.5562,
,,,,,,0,286,286,292,1,E, , , , ,space,2000,2,J H,001,2021-08-19_15h40.03.798,natb3,2021.2.3,Win32,59.99160118,610d9094f6a4a359eda594e6,611e07ecdcc96256ae8d5b80,611e6d2bc040d9f523901f24,,
,,,,,,0,287,287,302,1,X, , , , ,,2000,2,J H,001,2021-08-19_15h40.03.798,natb3,2021.2.3,Win32,59.99160118,610d9094f6a4a359eda594e6,611e07ecdcc96256ae8d5b80,611e6d2bc040d9f523901f24,,
,,,,,,0,288,288,43,1,X, ,6, ,2,,2500,2.5,J H,001,2021-08-19_15h40.03.798,natb3,2021.2.3,Win32,59.99160118,610d9094f6a4a359eda594e6,611e07ecdcc96256ae8d5b80,611e6d2bc040d9f523901f24,,
,,,,,,0,289,289,307,1,F, , , , ,space,2500,2.5,J H,001,2021-08-19_15h40.03.798,natb3,2021.2.3,Win32,59.99160118,610d9094f6a4a359eda594e6,611e07ecdcc96256ae8d5b80,611e6d2bc040d9f523901f24,,
,,,,space,,0,290,290,186,1,U, , , , ,space,2500,2.5,J H,001,2021-08-19_15h40.03.798,natb3,2021.2.3,Win32,59.99160118,610d9094f6a4a359eda594e6,611e07ecdcc96256ae8d5b80,611e6d2bc040d9f523901f24,0.5974,
,,,,,,0,291,291,111,1,O, , , , ,space,2000,2,J H,001,2021-08-19_15h40.03.798,natb3,2021.2.3,Win32,59.99160118,610d9094f6a4a359eda594e6,611e07ecdcc96256ae8d5b80,611e6d2bc040d9f523901f24,,
,,,,,,0,292,292,279,1,K, , , , ,space,2500,2.5,J H,001,2021-08-19_15h40.03.798,natb3,2021.2.3,Win32,59.99160118,610d9094f6a4a359eda594e6,611e07ecdcc96256ae8d5b80,611e6d2bc040d9f523901f24,,
,,,,space,,0,293,293,245,1,K, , , , ,space,2000,2,J H,001,2021-08-19_15h40.03.798,natb3,2021.2.3,Win32,59.99160118,610d9094f6a4a359eda594e6,611e07ecdcc96256ae8d5b80,611e6d2bc040d9f523901f24,0.9427,
,,,,,,0,294,294,236,1,X,3, ,4,7,,2500,2.5,J H,001,2021-08-19_15h40.03.798,natb3,2021.2.3,Win32,59.99160118,610d9094f6a4a359eda594e6,611e07ecdcc96256ae8d5b80,611e6d2bc040d9f523901f24,,
,,,,,,0,295,295,121,1,I, , , , ,space,2000,2,J H,001,2021-08-19_15h40.03.798,natb3,2021.2.3,Win32,59.99160118,610d9094f6a4a359eda594e6,611e07ecdcc96256ae8d5b80,611e6d2bc040d9f523901f24,,
,,,,,,0,296,296,207,1,X,9, ,2, ,,2500,2.5,J H,001,2021-08-19_15h40.03.798,natb3,2021.2.3,Win32,59.99160118,610d9094f6a4a359eda594e6,611e07ecdcc96256ae8d5b80,611e6d2bc040d9f523901f24,,
,,,,space,,0,297,297,201,1,K, , , , ,space,1500,1.5,J H,001,2021-08-19_15h40.03.798,natb3,2021.2.3,Win32,59.99160118,610d9094f6a4a359eda594e6,611e07ecdcc96256ae8d5b80,611e6d2bc040d9f523901f24,0.7709,
,,,,space,,0,298,298,6,1,Y, , , , ,space,2500,2.5,J H,001,2021-08-19_15h40.03.798,natb3,2021.2.3,Win32,59.99160118,610d9094f6a4a359eda594e6,611e07ecdcc96256ae8d5b80,611e6d2bc040d9f523901f24,0.4712,
,,,,space,,0,299,299,294,1,T, , , , ,space,2000,2,J H,001,2021-08-19_15h40.03.798,natb3,2021.2.3,Win32,59.99160118,610d9094f6a4a359eda594e6,611e07ecdcc96256ae8d5b80,611e6d2bc040d9f523901f24,0.9644,
,,,,space,,0,300,300,239,1,X, , , , ,,2000,2,J H,001,2021-08-19_15h40.03.798,natb3,2021.2.3,Win32,59.99160118,610d9094f6a4a359eda594e6,611e07ecdcc96256ae8d5b80,611e6d2bc040d9f523901f24,0.3823,
,,,,space,,0,301,301,235,1,A, , , , ,space,1500,1.5,J H,001,2021-08-19_15h40.03.798,natb3,2021.2.3,Win32,59.99160118,610d9094f6a4a359eda594e6,611e07ecdcc96256ae8d5b80,611e6d2bc040d9f523901f24,0.4856,
,,,,,,0,302,302,4,1,X, , , , ,,2000,2,J H,001,2021-08-19_15h40.03.798,natb3,2021.2.3,Win32,59.99160118,610d9094f6a4a359eda594e6,611e07ecdcc96256ae8d5b80,611e6d2bc040d9f523901f24,,
,,,,space,,0,303,303,76,1,I, , , , ,space,2000,2,J H,001,2021-08-19_15h40.03.798,natb3,2021.2.3,Win32,59.99160118,610d9094f6a4a359eda594e6,611e07ecdcc96256ae8d5b80,611e6d2bc040d9f523901f24,0.414,
,,,,space,,0,304,304,197,1,G, , , , ,space,2500,2.5,J H,001,2021-08-19_15h40.03.798,natb3,2021.2.3,Win32,59.99160118,610d9094f6a4a359eda594e6,611e07ecdcc96256ae8d5b80,611e6d2bc040d9f523901f24,0.3677,
,,,,space,,0,305,305,301,1,P, , , , ,space,1500,1.5,J H,001,2021-08-19_15h40.03.798,natb3,2021.2.3,Win32,59.99160118,610d9094f6a4a359eda594e6,611e07ecdcc96256ae8d5b80,611e6d2bc040d9f523901f24,0.5223,
,,,,space,,0,306,306,173,1,V, , , , ,space,1500,1.5,J H,001,2021-08-19_15h40.03.798,natb3,2021.2.3,Win32,59.99160118,610d9094f6a4a359eda594e6,611e07ecdcc96256ae8d5b80,611e6d2bc040d9f523901f24,0.4938,
,,,,space,,0,307,307,243,1,X, , , , ,,2500,2.5,J H,001,2021-08-19_15h40.03.798,natb3,2021.2.3,Win32,59.99160118,610d9094f6a4a359eda594e6,611e07ecdcc96256ae8d5b80,611e6d2bc040d9f523901f24,0.3858,
,,,,,,0,308,308,166,1,X, , , , ,,2000,2,J H,001,2021-08-19_15h40.03.798,natb3,2021.2.3,Win32,59.99160118,610d9094f6a4a359eda594e6,611e07ecdcc96256ae8d5b80,611e6d2bc040d9f523901f24,,
,,,,space,,0,309,309,326,1,W, , , , ,space,2000,2,J H,001,2021-08-19_15h40.03.798,natb3,2021.2.3,Win32,59.99160118,610d9094f6a4a359eda594e6,611e07ecdcc96256ae8d5b80,611e6d2bc040d9f523901f24,0.6093,
,,,,space,,0,310,310,300,1,O, , , , ,space,2500,2.5,J H,001,2021-08-19_15h40.03.798,natb3,2021.2.3,Win32,59.99160118,610d9094f6a4a359eda594e6,611e07ecdcc96256ae8d5b80,611e6d2bc040d9f523901f24,0.7688,
,,,,space,,0,311,311,149,1,R, , , , ,space,2000,2,J H,001,2021-08-19_15h40.03.798,natb3,2021.2.3,Win32,59.99160118,610d9094f6a4a359eda594e6,611e07ecdcc96256ae8d5b80,611e6d2bc040d9f523901f24,0.4363,
,,,,space,,0,312,312,130,1,F, , , , ,space,2000,2,J H,001,2021-08-19_15h40.03.798,natb3,2021.2.3,Win32,59.99160118,610d9094f6a4a359eda594e6,611e07ecdcc96256ae8d5b80,611e6d2bc040d9f523901f24,0.6959,
,,,,,,0,313,313,268,1,X,6, ,3, ,,2500,2.5,J H,001,2021-08-19_15h40.03.798,natb3,2021.2.3,Win32,59.99160118,610d9094f6a4a359eda594e6,611e07ecdcc96256ae8d5b80,611e6d2bc040d9f523901f24,,
,,,,,,0,314,314,324,1,Q, , , , ,space,2000,2,J H,001,2021-08-19_15h40.03.798,natb3,2021.2.3,Win32,59.99160118,610d9094f6a4a359eda594e6,611e07ecdcc96256ae8d5b80,611e6d2bc040d9f523901f24,,
,,,,space,,0,315,315,185,1,Y, , , , ,space,2500,2.5,J H,001,2021-08-19_15h40.03.798,natb3,2021.2.3,Win32,59.99160118,610d9094f6a4a359eda594e6,611e07ecdcc96256ae8d5b80,611e6d2bc040d9f523901f24,0.6303,
,,,,space,,0,316,316,56,1,J, , , , ,space,1500,1.5,J H,001,2021-08-19_15h40.03.798,natb3,2021.2.3,Win32,59.99160118,610d9094f6a4a359eda594e6,611e07ecdcc96256ae8d5b80,611e6d2bc040d9f523901f24,0.3685,
,,,,space,,0,317,317,144,1,Q, , , , ,space,2500,2.5,J H,001,2021-08-19_15h40.03.798,natb3,2021.2.3,Win32,59.99160118,610d9094f6a4a359eda594e6,611e07ecdcc96256ae8d5b80,611e6d2bc040d9f523901f24,0.4101,
,,,,space,,0,318,318,199,1,J, , , , ,space,2500,2.5,J H,001,2021-08-19_15h40.03.798,natb3,2021.2.3,Win32,59.99160118,610d9094f6a4a359eda594e6,611e07ecdcc96256ae8d5b80,611e6d2bc040d9f523901f24,0.3903,
,,,,space,,0,319,319,114,1,E, , , , ,space,2000,2,J H,001,2021-08-19_15h40.03.798,natb3,2021.2.3,Win32,59.99160118,610d9094f6a4a359eda594e6,611e07ecdcc96256ae8d5b80,611e6d2bc040d9f523901f24,0.9397,
,,,,,,0,320,320,179,1,X, ,9, ,2,,1500,1.5,J H,001,2021-08-19_15h40.03.798,natb3,2021.2.3,Win32,59.99160118,610d9094f6a4a359eda594e6,611e07ecdcc96256ae8d5b80,611e6d2bc040d9f523901f24,,
,,,,space,,0,321,321,52,1,F, , , , ,space,1500,1.5,J H,001,2021-08-19_15h40.03.798,natb3,2021.2.3,Win32,59.99160118,610d9094f6a4a359eda594e6,611e07ecdcc96256ae8d5b80,611e6d2bc040d9f523901f24,0.5837,
,,,,space,,0,322,322,80,1,A, , , , ,space,2000,2,J H,001,2021-08-19_15h40.03.798,natb3,2021.2.3,Win32,59.99160118,610d9094f6a4a359eda594e6,611e07ecdcc96256ae8d5b80,611e6d2bc040d9f523901f24,0.7125,
,,,,space,,0,323,323,169,1,L, , , , ,space,2500,2.5,J H,001,2021-08-19_15h40.03.798,natb3,2021.2.3,Win32,59.99160118,610d9094f6a4a359eda594e6,611e07ecdcc96256ae8d5b80,611e6d2bc040d9f523901f24,0.7403,
,,,,space,,0,324,324,134,1,J, , , , ,space,2000,2,J H,001,2021-08-19_15h40.03.798,natb3,2021.2.3,Win32,59.99160118,610d9094f6a4a359eda594e6,611e07ecdcc96256ae8d5b80,611e6d2bc040d9f523901f24,0.6982,
,,,,,,0,325,325,263,1,X,4, ,6, ,,1500,1.5,J H,001,2021-08-19_15h40.03.798,natb3,2021.2.3,Win32,59.99160118,610d9094f6a4a359eda594e6,611e07ecdcc96256ae8d5b80,611e6d2bc040d9f523901f24,,
,,,,space,,0,326,326,249,1,C, , , , ,space,2000,2,J H,001,2021-08-19_15h40.03.798,natb3,2021.2.3,Win32,59.99160118,610d9094f6a4a359eda594e6,611e07ecdcc96256ae8d5b80,611e6d2bc040d9f523901f24,0.4135,
,,,,space,,0,327,327,125,1,X, , , , ,,2000,2,J H,001,2021-08-19_15h40.03.798,natb3,2021.2.3,Win32,59.99160118,610d9094f6a4a359eda594e6,611e07ecdcc96256ae8d5b80,611e6d2bc040d9f523901f24,0.5901,
,,,,,,0,328,328,250,1,V, , , , ,space,2000,2,J H,001,2021-08-19_15h40.03.798,natb3,2021.2.3,Win32,59.99160118,610d9094f6a4a359eda594e6,611e07ecdcc96256ae8d5b80,611e6d2bc040d9f523901f24,,
,,,,,,0,329,329,198,1,H, , , , ,space,2500,2.5,J H,001,2021-08-19_15h40.03.798,natb3,2021.2.3,Win32,59.99160118,610d9094f6a4a359eda594e6,611e07ecdcc96256ae8d5b80,611e6d2bc040d9f523901f24,,
,,,,space,,0,330,330,1,1,W, , , , ,space,2000,2,J H,001,2021-08-19_15h40.03.798,natb3,2021.2.3,Win32,59.99160118,610d9094f6a4a359eda594e6,611e07ecdcc96256ae8d5b80,611e6d2bc040d9f523901f24,0.9475,
,,,,,,0,331,331,321,1,N, , , , ,space,2000,2,J H,001,2021-08-19_15h40.03.798,natb3,2021.2.3,Win32,59.99160118,610d9094f6a4a359eda594e6,611e07ecdcc96256ae8d5b80,611e6d2bc040d9f523901f24,,
,,,,space,,0,332,332,99,1,N, , , , ,space,2500,2.5,J H,001,2021-08-19_15h40.03.798,natb3,2021.2.3,Win32,59.99160118,610d9094f6a4a359eda594e6,611e07ecdcc96256ae8d5b80,611e6d2bc040d9f523901f24,0.6202,
,,,,space,,0,333,333,12,1,X, , , , ,,1500,1.5,J H,001,2021-08-19_15h40.03.798,natb3,2021.2.3,Win32,59.99160118,610d9094f6a4a359eda594e6,611e07ecdcc96256ae8d5b80,611e6d2bc040d9f523901f24,0.7439,
,,,,space,,0,334,334,132,1,H, , , , ,space,2500,2.5,J H,001,2021-08-19_15h40.03.798,natb3,2021.2.3,Win32,59.99160118,610d9094f6a4a359eda594e6,611e07ecdcc96256ae8d5b80,611e6d2bc040d9f523901f24,0.4786,
,,,,,,0,335,335,74,1,X, ,4,3,2,,1500,1.5,J H,001,2021-08-19_15h40.03.798,natb3,2021.2.3,Win32,59.99160118,610d9094f6a4a359eda594e6,611e07ecdcc96256ae8d5b80,611e6d2bc040d9f523901f24,,
