key_resp_2.keys,key_resp_2.rt,key_resp_3.keys,key_resp_3.rt,key_resp.keys,key_resp_4.keys,trials.thisRepN,trials.thisTrialN,trials.thisN,trials.thisIndex,trials.ran,stimulus,distractor1,distractor2,distractor3,distractor4,CorrAns,isi_duration,isi_dur_in_seconds,participant,session,date,expName,psychopyVersion,OS,frameRate,PROLIFIC_PID,STUDY_ID,SESSION_ID,key_resp.rt,key_resp_4.rt
return,18.2355,space,20.0709,,,0,0,0,316,1,Z, , , , ,space,1500,1.5,Jonathan,001,2021-08-19_16h17.25.521,natb3,2021.2.3,Win32,8.572138834,5f3c5d4c9168ccad270ddb36,611e07ecdcc96256ae8d5b80,611e75eaf637cb315c8a7155,,
,,,,space,,0,1,1,241,1,G, , , , ,space,2500,2.5,Jonathan,001,2021-08-19_16h17.25.521,natb3,2021.2.3,Win32,8.572138834,5f3c5d4c9168ccad270ddb36,611e07ecdcc96256ae8d5b80,611e75eaf637cb315c8a7155,0.8285,
,,,,space,,0,2,2,300,1,O, , , , ,space,2500,2.5,Jonathan,001,2021-08-19_16h17.25.521,natb3,2021.2.3,Win32,8.572138834,5f3c5d4c9168ccad270ddb36,611e07ecdcc96256ae8d5b80,611e75eaf637cb315c8a7155,0.6784,
,,,,space,,0,3,3,201,1,K, , , , ,space,1500,1.5,Jonathan,001,2021-08-19_16h17.25.521,natb3,2021.2.3,Win32,8.572138834,5f3c5d4c9168ccad270ddb36,611e07ecdcc96256ae8d5b80,611e75eaf637cb315c8a7155,0.8235,
,,,,space,,0,4,4,331,1,Y, , , , ,space,2500,2.5,Jonathan,001,2021-08-19_16h17.25.521,natb3,2021.2.3,Win32,8.572138834,5f3c5d4c9168ccad270ddb36,611e07ecdcc96256ae8d5b80,611e75eaf637cb315c8a7155,0.681,
,,,,space,,0,5,5,10,1,O, , , , ,space,2000,2,Jonathan,001,2021-08-19_16h17.25.521,natb3,2021.2.3,Win32,8.572138834,5f3c5d4c9168ccad270ddb36,611e07ecdcc96256ae8d5b80,611e75eaf637cb315c8a7155,0.6827,
,,,,,,0,6,6,82,1,X,4,6,1,7,,2000,2,Jonathan,001,2021-08-19_16h17.25.521,natb3,2021.2.3,Win32,8.572138834,5f3c5d4c9168ccad270ddb36,611e07ecdcc96256ae8d5b80,611e75eaf637cb315c8a7155,,
,,,,,,0,7,7,179,1,X, ,9, ,2,,1500,1.5,Jonathan,001,2021-08-19_16h17.25.521,natb3,2021.2.3,Win32,8.572138834,5f3c5d4c9168ccad270ddb36,611e07ecdcc96256ae8d5b80,611e75eaf637cb315c8a7155,,
,,,,space,,0,8,8,38,1,R, , , , ,space,2500,2.5,Jonathan,001,2021-08-19_16h17.25.521,natb3,2021.2.3,Win32,8.572138834,5f3c5d4c9168ccad270ddb36,611e07ecdcc96256ae8d5b80,611e75eaf637cb315c8a7155,0.6816,
,,,,space,,0,9,9,180,1,W, , , , ,space,2000,2,Jonathan,001,2021-08-19_16h17.25.521,natb3,2021.2.3,Win32,8.572138834,5f3c5d4c9168ccad270ddb36,611e07ecdcc96256ae8d5b80,611e75eaf637cb315c8a7155,0.6844,
,,,,space,,0,10,10,124,1,P, , , , ,space,2000,2,Jonathan,001,2021-08-19_16h17.25.521,natb3,2021.2.3,Win32,8.572138834,5f3c5d4c9168ccad270ddb36,611e07ecdcc96256ae8d5b80,611e75eaf637cb315c8a7155,0.6837,
,,,,space,,0,11,11,240,1,F, , , , ,space,2500,2.5,Jonathan,001,2021-08-19_16h17.25.521,natb3,2021.2.3,Win32,8.572138834,5f3c5d4c9168ccad270ddb36,611e07ecdcc96256ae8d5b80,611e75eaf637cb315c8a7155,0.6819,
,,,,space,,0,12,12,195,1,X, , , , ,,1500,1.5,Jonathan,001,2021-08-19_16h17.25.521,natb3,2021.2.3,Win32,8.572138834,5f3c5d4c9168ccad270ddb36,611e07ecdcc96256ae8d5b80,611e75eaf637cb315c8a7155,0.6839,
,,,,space,,0,13,13,85,1,F, , , , ,space,2500,2.5,Jonathan,001,2021-08-19_16h17.25.521,natb3,2021.2.3,Win32,8.572138834,5f3c5d4c9168ccad270ddb36,611e07ecdcc96256ae8d5b80,611e75eaf637cb315c8a7155,0.8196,
,,,,space,,0,14,14,100,1,M, , , , ,space,2000,2,Jonathan,001,2021-08-19_16h17.25.521,natb3,2021.2.3,Win32,8.572138834,5f3c5d4c9168ccad270ddb36,611e07ecdcc96256ae8d5b80,611e75eaf637cb315c8a7155,0.6823,
,,,,space,,0,15,15,22,1,K, , , , ,space,2000,2,Jonathan,001,2021-08-19_16h17.25.521,natb3,2021.2.3,Win32,8.572138834,5f3c5d4c9168ccad270ddb36,611e07ecdcc96256ae8d5b80,611e75eaf637cb315c8a7155,0.6812,
,,,,,,0,16,16,15,1,X, , , , ,,1500,1.5,Jonathan,001,2021-08-19_16h17.25.521,natb3,2021.2.3,Win32,8.572138834,5f3c5d4c9168ccad270ddb36,611e07ecdcc96256ae8d5b80,611e75eaf637cb315c8a7155,,
,,,,space,,0,17,17,140,1,B, , , , ,space,2500,2.5,Jonathan,001,2021-08-19_16h17.25.521,natb3,2021.2.3,Win32,8.572138834,5f3c5d4c9168ccad270ddb36,611e07ecdcc96256ae8d5b80,611e75eaf637cb315c8a7155,0.6812,
,,,,space,,0,18,18,257,1,W, , , , ,space,2000,2,Jonathan,001,2021-08-19_16h17.25.521,natb3,2021.2.3,Win32,8.572138834,5f3c5d4c9168ccad270ddb36,611e07ecdcc96256ae8d5b80,611e75eaf637cb315c8a7155,0.6877,
,,,,space,,0,19,19,77,1,O, , , , ,space,2000,2,Jonathan,001,2021-08-19_16h17.25.521,natb3,2021.2.3,Win32,8.572138834,5f3c5d4c9168ccad270ddb36,611e07ecdcc96256ae8d5b80,611e75eaf637cb315c8a7155,0.5488,
,,,,space,,0,20,20,79,1,P, , , , ,space,2000,2,Jonathan,001,2021-08-19_16h17.25.521,natb3,2021.2.3,Win32,8.572138834,5f3c5d4c9168ccad270ddb36,611e07ecdcc96256ae8d5b80,611e75eaf637cb315c8a7155,0.5449,
,,,,,,0,21,21,277,1,X,8,5, ,2,,2000,2,Jonathan,001,2021-08-19_16h17.25.521,natb3,2021.2.3,Win32,8.572138834,5f3c5d4c9168ccad270ddb36,611e07ecdcc96256ae8d5b80,611e75eaf637cb315c8a7155,,
,,,,space,,0,22,22,206,1,V, , , , ,space,2000,2,Jonathan,001,2021-08-19_16h17.25.521,natb3,2021.2.3,Win32,8.572138834,5f3c5d4c9168ccad270ddb36,611e07ecdcc96256ae8d5b80,611e75eaf637cb315c8a7155,0.6776,
,,,,,,0,23,23,273,1,X, , , , ,,2000,2,Jonathan,001,2021-08-19_16h17.25.521,natb3,2021.2.3,Win32,8.572138834,5f3c5d4c9168ccad270ddb36,611e07ecdcc96256ae8d5b80,611e75eaf637cb315c8a7155,,
,,,,space,,0,24,24,136,1,Z, , , , ,space,2500,2.5,Jonathan,001,2021-08-19_16h17.25.521,natb3,2021.2.3,Win32,8.572138834,5f3c5d4c9168ccad270ddb36,611e07ecdcc96256ae8d5b80,611e75eaf637cb315c8a7155,0.8178,
,,,,space,,0,25,25,176,1,N, , , , ,space,1500,1.5,Jonathan,001,2021-08-19_16h17.25.521,natb3,2021.2.3,Win32,8.572138834,5f3c5d4c9168ccad270ddb36,611e07ecdcc96256ae8d5b80,611e75eaf637cb315c8a7155,0.6865,
,,,,space,,0,26,26,272,1,D, , , , ,space,2000,2,Jonathan,001,2021-08-19_16h17.25.521,natb3,2021.2.3,Win32,8.572138834,5f3c5d4c9168ccad270ddb36,611e07ecdcc96256ae8d5b80,611e75eaf637cb315c8a7155,0.6808,
,,,,space,,0,27,27,306,1,D, , , , ,space,2000,2,Jonathan,001,2021-08-19_16h17.25.521,natb3,2021.2.3,Win32,8.572138834,5f3c5d4c9168ccad270ddb36,611e07ecdcc96256ae8d5b80,611e75eaf637cb315c8a7155,0.5427,
,,,,,,0,28,28,207,1,X,9, ,2, ,,2500,2.5,Jonathan,001,2021-08-19_16h17.25.521,natb3,2021.2.3,Win32,8.572138834,5f3c5d4c9168ccad270ddb36,611e07ecdcc96256ae8d5b80,611e75eaf637cb315c8a7155,,
,,,,space,,0,29,29,217,1,T, , , , ,space,2500,2.5,Jonathan,001,2021-08-19_16h17.25.521,natb3,2021.2.3,Win32,8.572138834,5f3c5d4c9168ccad270ddb36,611e07ecdcc96256ae8d5b80,611e75eaf637cb315c8a7155,0.6828,
,,,,space,,0,30,30,215,1,E, , , , ,space,2500,2.5,Jonathan,001,2021-08-19_16h17.25.521,natb3,2021.2.3,Win32,8.572138834,5f3c5d4c9168ccad270ddb36,611e07ecdcc96256ae8d5b80,611e75eaf637cb315c8a7155,0.6797,
,,,,space,,0,31,31,314,1,L, , , , ,space,1500,1.5,Jonathan,001,2021-08-19_16h17.25.521,natb3,2021.2.3,Win32,8.572138834,5f3c5d4c9168ccad270ddb36,611e07ecdcc96256ae8d5b80,611e75eaf637cb315c8a7155,0.541,
,,,,,,0,32,32,122,1,X,1, , ,8,,1500,1.5,Jonathan,001,2021-08-19_16h17.25.521,natb3,2021.2.3,Win32,8.572138834,5f3c5d4c9168ccad270ddb36,611e07ecdcc96256ae8d5b80,611e75eaf637cb315c8a7155,,
,,,,space,,0,33,33,278,1,J, , , , ,space,2000,2,Jonathan,001,2021-08-19_16h17.25.521,natb3,2021.2.3,Win32,8.572138834,5f3c5d4c9168ccad270ddb36,611e07ecdcc96256ae8d5b80,611e75eaf637cb315c8a7155,0.6838,
,,,,space,,0,34,34,7,1,X, , , , ,,1500,1.5,Jonathan,001,2021-08-19_16h17.25.521,natb3,2021.2.3,Win32,8.572138834,5f3c5d4c9168ccad270ddb36,611e07ecdcc96256ae8d5b80,611e75eaf637cb315c8a7155,0.5463,
,,,,,,0,35,35,18,1,X, ,2,5,8,,2500,2.5,Jonathan,001,2021-08-19_16h17.25.521,natb3,2021.2.3,Win32,8.572138834,5f3c5d4c9168ccad270ddb36,611e07ecdcc96256ae8d5b80,611e75eaf637cb315c8a7155,,
,,,,,,0,36,36,96,1,X, , , , ,,1500,1.5,Jonathan,001,2021-08-19_16h17.25.521,natb3,2021.2.3,Win32,8.572138834,5f3c5d4c9168ccad270ddb36,611e07ecdcc96256ae8d5b80,611e75eaf637cb315c8a7155,,
,,,,space,,0,37,37,185,1,Y, , , , ,space,2500,2.5,Jonathan,001,2021-08-19_16h17.25.521,natb3,2021.2.3,Win32,8.572138834,5f3c5d4c9168ccad270ddb36,611e07ecdcc96256ae8d5b80,611e75eaf637cb315c8a7155,0.6845,
,,,,space,,0,38,38,76,1,I, , , , ,space,2000,2,Jonathan,001,2021-08-19_16h17.25.521,natb3,2021.2.3,Win32,8.572138834,5f3c5d4c9168ccad270ddb36,611e07ecdcc96256ae8d5b80,611e75eaf637cb315c8a7155,0.6833,
,,,,space,,0,39,39,267,1,P, , , , ,space,2000,2,Jonathan,001,2021-08-19_16h17.25.521,natb3,2021.2.3,Win32,8.572138834,5f3c5d4c9168ccad270ddb36,611e07ecdcc96256ae8d5b80,611e75eaf637cb315c8a7155,0.5394,
,,,,space,,0,40,40,161,1,F, , , , ,space,1500,1.5,Jonathan,001,2021-08-19_16h17.25.521,natb3,2021.2.3,Win32,8.572138834,5f3c5d4c9168ccad270ddb36,611e07ecdcc96256ae8d5b80,611e75eaf637cb315c8a7155,0.678,
,,,,space,,0,41,41,63,1,B, , , , ,space,2000,2,Jonathan,001,2021-08-19_16h17.25.521,natb3,2021.2.3,Win32,8.572138834,5f3c5d4c9168ccad270ddb36,611e07ecdcc96256ae8d5b80,611e75eaf637cb315c8a7155,0.5429,
,,,,,,0,42,42,74,1,X, ,4,3,2,,1500,1.5,Jonathan,001,2021-08-19_16h17.25.521,natb3,2021.2.3,Win32,8.572138834,5f3c5d4c9168ccad270ddb36,611e07ecdcc96256ae8d5b80,611e75eaf637cb315c8a7155,,
,,,,space,,0,43,43,232,1,O, , , , ,space,2500,2.5,Jonathan,001,2021-08-19_16h17.25.521,natb3,2021.2.3,Win32,8.572138834,5f3c5d4c9168ccad270ddb36,611e07ecdcc96256ae8d5b80,611e75eaf637cb315c8a7155,0.6766,
,,,,space,,0,44,44,333,1,I, , , , ,space,1500,1.5,Jonathan,001,2021-08-19_16h17.25.521,natb3,2021.2.3,Win32,8.572138834,5f3c5d4c9168ccad270ddb36,611e07ecdcc96256ae8d5b80,611e75eaf637cb315c8a7155,0.5401,
,,,,,,0,45,45,65,1,M, , , , ,space,1500,1.5,Jonathan,001,2021-08-19_16h17.25.521,natb3,2021.2.3,Win32,8.572138834,5f3c5d4c9168ccad270ddb36,611e07ecdcc96256ae8d5b80,611e75eaf637cb315c8a7155,,
,,,,,,0,46,46,271,1,X, , , , ,,2500,2.5,Jonathan,001,2021-08-19_16h17.25.521,natb3,2021.2.3,Win32,8.572138834,5f3c5d4c9168ccad270ddb36,611e07ecdcc96256ae8d5b80,611e75eaf637cb315c8a7155,,
,,,,space,,0,47,47,149,1,R, , , , ,space,2000,2,Jonathan,001,2021-08-19_16h17.25.521,natb3,2021.2.3,Win32,8.572138834,5f3c5d4c9168ccad270ddb36,611e07ecdcc96256ae8d5b80,611e75eaf637cb315c8a7155,0.6811,
,,,,space,,0,48,48,47,1,P, , , , ,space,2000,2,Jonathan,001,2021-08-19_16h17.25.521,natb3,2021.2.3,Win32,8.572138834,5f3c5d4c9168ccad270ddb36,611e07ecdcc96256ae8d5b80,611e75eaf637cb315c8a7155,0.6798,
,,,,,,0,49,49,35,1,X, , , , ,,2500,2.5,Jonathan,001,2021-08-19_16h17.25.521,natb3,2021.2.3,Win32,8.572138834,5f3c5d4c9168ccad270ddb36,611e07ecdcc96256ae8d5b80,611e75eaf637cb315c8a7155,,
,,,,space,,0,50,50,254,1,M, , , , ,space,1500,1.5,Jonathan,001,2021-08-19_16h17.25.521,natb3,2021.2.3,Win32,8.572138834,5f3c5d4c9168ccad270ddb36,611e07ecdcc96256ae8d5b80,611e75eaf637cb315c8a7155,0.5443,
,,,,space,,0,51,51,131,1,G, , , , ,space,1500,1.5,Jonathan,001,2021-08-19_16h17.25.521,natb3,2021.2.3,Win32,8.572138834,5f3c5d4c9168ccad270ddb36,611e07ecdcc96256ae8d5b80,611e75eaf637cb315c8a7155,0.6771,
,,,,space,,0,52,52,87,1,H, , , , ,space,1500,1.5,Jonathan,001,2021-08-19_16h17.25.521,natb3,2021.2.3,Win32,8.572138834,5f3c5d4c9168ccad270ddb36,611e07ecdcc96256ae8d5b80,611e75eaf637cb315c8a7155,0.5407,
,,,,space,,0,53,53,3,1,R, , , , ,space,2000,2,Jonathan,001,2021-08-19_16h17.25.521,natb3,2021.2.3,Win32,8.572138834,5f3c5d4c9168ccad270ddb36,611e07ecdcc96256ae8d5b80,611e75eaf637cb315c8a7155,0.5478,
,,,,space,,0,54,54,244,1,J, , , , ,space,1500,1.5,Jonathan,001,2021-08-19_16h17.25.521,natb3,2021.2.3,Win32,8.572138834,5f3c5d4c9168ccad270ddb36,611e07ecdcc96256ae8d5b80,611e75eaf637cb315c8a7155,0.5416,
,,,,space,,0,55,55,132,1,H, , , , ,space,2500,2.5,Jonathan,001,2021-08-19_16h17.25.521,natb3,2021.2.3,Win32,8.572138834,5f3c5d4c9168ccad270ddb36,611e07ecdcc96256ae8d5b80,611e75eaf637cb315c8a7155,0.5412,
,,,,space,,0,56,56,80,1,A, , , , ,space,2000,2,Jonathan,001,2021-08-19_16h17.25.521,natb3,2021.2.3,Win32,8.572138834,5f3c5d4c9168ccad270ddb36,611e07ecdcc96256ae8d5b80,611e75eaf637cb315c8a7155,0.5381,
,,,,,,0,57,57,60,1,X,7,3,5, ,,1500,1.5,Jonathan,001,2021-08-19_16h17.25.521,natb3,2021.2.3,Win32,8.572138834,5f3c5d4c9168ccad270ddb36,611e07ecdcc96256ae8d5b80,611e75eaf637cb315c8a7155,,
,,,,space,,0,58,58,91,1,L, , , , ,space,2000,2,Jonathan,001,2021-08-19_16h17.25.521,natb3,2021.2.3,Win32,8.572138834,5f3c5d4c9168ccad270ddb36,611e07ecdcc96256ae8d5b80,611e75eaf637cb315c8a7155,0.6767,
,,,,space,,0,59,59,212,1,Q, , , , ,space,2500,2.5,Jonathan,001,2021-08-19_16h17.25.521,natb3,2021.2.3,Win32,8.572138834,5f3c5d4c9168ccad270ddb36,611e07ecdcc96256ae8d5b80,611e75eaf637cb315c8a7155,0.5447,
,,,,space,,0,60,60,46,1,X, , , , ,,2000,2,Jonathan,001,2021-08-19_16h17.25.521,natb3,2021.2.3,Win32,8.572138834,5f3c5d4c9168ccad270ddb36,611e07ecdcc96256ae8d5b80,611e75eaf637cb315c8a7155,0.5409,
,,,,space,,0,61,61,199,1,J, , , , ,space,2500,2.5,Jonathan,001,2021-08-19_16h17.25.521,natb3,2021.2.3,Win32,8.572138834,5f3c5d4c9168ccad270ddb36,611e07ecdcc96256ae8d5b80,611e75eaf637cb315c8a7155,0.6797,
,,,,,,0,62,62,335,1,P,,,,,space,1500,1.5,Jonathan,001,2021-08-19_16h17.25.521,natb3,2021.2.3,Win32,8.572138834,5f3c5d4c9168ccad270ddb36,611e07ecdcc96256ae8d5b80,611e75eaf637cb315c8a7155,,
,,,,space,,0,63,63,289,1,Q, , , , ,space,2000,2,Jonathan,001,2021-08-19_16h17.25.521,natb3,2021.2.3,Win32,8.572138834,5f3c5d4c9168ccad270ddb36,611e07ecdcc96256ae8d5b80,611e75eaf637cb315c8a7155,0.8174,
,,,,,,0,64,64,27,1,X,5, ,1,3,,1500,1.5,Jonathan,001,2021-08-19_16h17.25.521,natb3,2021.2.3,Win32,8.572138834,5f3c5d4c9168ccad270ddb36,611e07ecdcc96256ae8d5b80,611e75eaf637cb315c8a7155,,
,,,,space,,0,65,65,123,1,O, , , , ,space,1500,1.5,Jonathan,001,2021-08-19_16h17.25.521,natb3,2021.2.3,Win32,8.572138834,5f3c5d4c9168ccad270ddb36,611e07ecdcc96256ae8d5b80,611e75eaf637cb315c8a7155,0.6932,
,,,,space,,0,66,66,59,1,Z, , , , ,space,2000,2,Jonathan,001,2021-08-19_16h17.25.521,natb3,2021.2.3,Win32,8.572138834,5f3c5d4c9168ccad270ddb36,611e07ecdcc96256ae8d5b80,611e75eaf637cb315c8a7155,0.6932,
,,,,space,,0,67,67,69,1,X, , , , ,,1500,1.5,Jonathan,001,2021-08-19_16h17.25.521,natb3,2021.2.3,Win32,8.572138834,5f3c5d4c9168ccad270ddb36,611e07ecdcc96256ae8d5b80,611e75eaf637cb315c8a7155,0.694,
,,,,space,,0,68,68,108,1,Y, , , , ,space,2500,2.5,Jonathan,001,2021-08-19_16h17.25.521,natb3,2021.2.3,Win32,8.572138834,5f3c5d4c9168ccad270ddb36,611e07ecdcc96256ae8d5b80,611e75eaf637cb315c8a7155,0.6861,
,,,,space,,0,69,69,164,1,H, , , , ,space,2500,2.5,Jonathan,001,2021-08-19_16h17.25.521,natb3,2021.2.3,Win32,8.572138834,5f3c5d4c9168ccad270ddb36,611e07ecdcc96256ae8d5b80,611e75eaf637cb315c8a7155,0.5459,
,,,,,,0,70,70,200,1,X,7, ,5,3,,1500,1.5,Jonathan,001,2021-08-19_16h17.25.521,natb3,2021.2.3,Win32,8.572138834,5f3c5d4c9168ccad270ddb36,611e07ecdcc96256ae8d5b80,611e75eaf637cb315c8a7155,,
,,,,,,0,71,71,287,1,X, ,2, ,9,,2000,2,Jonathan,001,2021-08-19_16h17.25.521,natb3,2021.2.3,Win32,8.572138834,5f3c5d4c9168ccad270ddb36,611e07ecdcc96256ae8d5b80,611e75eaf637cb315c8a7155,,
,,,,space,,0,72,72,165,1,J, , , , ,space,2500,2.5,Jonathan,001,2021-08-19_16h17.25.521,natb3,2021.2.3,Win32,8.572138834,5f3c5d4c9168ccad270ddb36,611e07ecdcc96256ae8d5b80,611e75eaf637cb315c8a7155,0.6796,
,,,,space,,0,73,73,198,1,H, , , , ,space,2500,2.5,Jonathan,001,2021-08-19_16h17.25.521,natb3,2021.2.3,Win32,8.572138834,5f3c5d4c9168ccad270ddb36,611e07ecdcc96256ae8d5b80,611e75eaf637cb315c8a7155,0.8151,
,,,,,,0,74,74,259,1,X,8, , ,3,,2500,2.5,Jonathan,001,2021-08-19_16h17.25.521,natb3,2021.2.3,Win32,8.572138834,5f3c5d4c9168ccad270ddb36,611e07ecdcc96256ae8d5b80,611e75eaf637cb315c8a7155,,
,,,,,,0,75,75,295,1,X,8,7,5, ,,2500,2.5,Jonathan,001,2021-08-19_16h17.25.521,natb3,2021.2.3,Win32,8.572138834,5f3c5d4c9168ccad270ddb36,611e07ecdcc96256ae8d5b80,611e75eaf637cb315c8a7155,,
,,,,,,0,76,76,66,1,X, ,4,7, ,,2000,2,Jonathan,001,2021-08-19_16h17.25.521,natb3,2021.2.3,Win32,8.572138834,5f3c5d4c9168ccad270ddb36,611e07ecdcc96256ae8d5b80,611e75eaf637cb315c8a7155,,
,,,,space,,0,77,77,270,1,S, , , , ,space,1500,1.5,Jonathan,001,2021-08-19_16h17.25.521,natb3,2021.2.3,Win32,8.572138834,5f3c5d4c9168ccad270ddb36,611e07ecdcc96256ae8d5b80,611e75eaf637cb315c8a7155,0.6854,
,,,,space,,0,78,78,285,1,B, , , , ,space,1500,1.5,Jonathan,001,2021-08-19_16h17.25.521,natb3,2021.2.3,Win32,8.572138834,5f3c5d4c9168ccad270ddb36,611e07ecdcc96256ae8d5b80,611e75eaf637cb315c8a7155,0.6911,
,,,,space,,0,79,79,225,1,E, , , , ,space,2000,2,Jonathan,001,2021-08-19_16h17.25.521,natb3,2021.2.3,Win32,8.572138834,5f3c5d4c9168ccad270ddb36,611e07ecdcc96256ae8d5b80,611e75eaf637cb315c8a7155,0.6767,
,,,,,,0,80,80,23,1,X,1, ,5, ,,2000,2,Jonathan,001,2021-08-19_16h17.25.521,natb3,2021.2.3,Win32,8.572138834,5f3c5d4c9168ccad270ddb36,611e07ecdcc96256ae8d5b80,611e75eaf637cb315c8a7155,,
,,,,space,,0,81,81,104,1,E, , , , ,space,2000,2,Jonathan,001,2021-08-19_16h17.25.521,natb3,2021.2.3,Win32,8.572138834,5f3c5d4c9168ccad270ddb36,611e07ecdcc96256ae8d5b80,611e75eaf637cb315c8a7155,0.8168,
,,,,space,,0,82,82,152,1,U, , , , ,space,2000,2,Jonathan,001,2021-08-19_16h17.25.521,natb3,2021.2.3,Win32,8.572138834,5f3c5d4c9168ccad270ddb36,611e07ecdcc96256ae8d5b80,611e75eaf637cb315c8a7155,0.547,
,,,,space,,0,83,83,157,1,A, , , , ,space,2500,2.5,Jonathan,001,2021-08-19_16h17.25.521,natb3,2021.2.3,Win32,8.572138834,5f3c5d4c9168ccad270ddb36,611e07ecdcc96256ae8d5b80,611e75eaf637cb315c8a7155,0.5406,
,,,,space,,0,84,84,71,1,R, , , , ,space,2500,2.5,Jonathan,001,2021-08-19_16h17.25.521,natb3,2021.2.3,Win32,8.572138834,5f3c5d4c9168ccad270ddb36,611e07ecdcc96256ae8d5b80,611e75eaf637cb315c8a7155,0.6803,
,,,,space,,0,85,85,92,1,Z, , , , ,space,1500,1.5,Jonathan,001,2021-08-19_16h17.25.521,natb3,2021.2.3,Win32,8.572138834,5f3c5d4c9168ccad270ddb36,611e07ecdcc96256ae8d5b80,611e75eaf637cb315c8a7155,0.5418,
,,,,space,,0,86,86,139,1,V, , , , ,space,2000,2,Jonathan,001,2021-08-19_16h17.25.521,natb3,2021.2.3,Win32,8.572138834,5f3c5d4c9168ccad270ddb36,611e07ecdcc96256ae8d5b80,611e75eaf637cb315c8a7155,0.6892,
,,,,space,,0,87,87,318,1,X, , , , ,,1500,1.5,Jonathan,001,2021-08-19_16h17.25.521,natb3,2021.2.3,Win32,8.572138834,5f3c5d4c9168ccad270ddb36,611e07ecdcc96256ae8d5b80,611e75eaf637cb315c8a7155,0.6808,
,,,,space,,0,88,88,34,1,Q, , , , ,space,2500,2.5,Jonathan,001,2021-08-19_16h17.25.521,natb3,2021.2.3,Win32,8.572138834,5f3c5d4c9168ccad270ddb36,611e07ecdcc96256ae8d5b80,611e75eaf637cb315c8a7155,0.682,
,,,,space,,0,89,89,324,1,Q, , , , ,space,2000,2,Jonathan,001,2021-08-19_16h17.25.521,natb3,2021.2.3,Win32,8.572138834,5f3c5d4c9168ccad270ddb36,611e07ecdcc96256ae8d5b80,611e75eaf637cb315c8a7155,0.6825,
,,,,,,0,90,90,213,1,X, , , , ,,2500,2.5,Jonathan,001,2021-08-19_16h17.25.521,natb3,2021.2.3,Win32,8.572138834,5f3c5d4c9168ccad270ddb36,611e07ecdcc96256ae8d5b80,611e75eaf637cb315c8a7155,,
,,,,space,,0,91,91,183,1,R, , , , ,space,1500,1.5,Jonathan,001,2021-08-19_16h17.25.521,natb3,2021.2.3,Win32,8.572138834,5f3c5d4c9168ccad270ddb36,611e07ecdcc96256ae8d5b80,611e75eaf637cb315c8a7155,0.6804,
,,,,,,0,92,92,78,1,X, , , , ,,2000,2,Jonathan,001,2021-08-19_16h17.25.521,natb3,2021.2.3,Win32,8.572138834,5f3c5d4c9168ccad270ddb36,611e07ecdcc96256ae8d5b80,611e75eaf637cb315c8a7155,,
,,,,space,,0,93,93,193,1,S, , , , ,space,2500,2.5,Jonathan,001,2021-08-19_16h17.25.521,natb3,2021.2.3,Win32,8.572138834,5f3c5d4c9168ccad270ddb36,611e07ecdcc96256ae8d5b80,611e75eaf637cb315c8a7155,0.6787,
,,,,space,,0,94,94,110,1,I, , , , ,space,1500,1.5,Jonathan,001,2021-08-19_16h17.25.521,natb3,2021.2.3,Win32,8.572138834,5f3c5d4c9168ccad270ddb36,611e07ecdcc96256ae8d5b80,611e75eaf637cb315c8a7155,0.5422,
,,,,space,,0,95,95,16,1,D, , , , ,space,1500,1.5,Jonathan,001,2021-08-19_16h17.25.521,natb3,2021.2.3,Win32,8.572138834,5f3c5d4c9168ccad270ddb36,611e07ecdcc96256ae8d5b80,611e75eaf637cb315c8a7155,0.6786,
,,,,space,,0,96,96,145,1,X, , , , ,,2000,2,Jonathan,001,2021-08-19_16h17.25.521,natb3,2021.2.3,Win32,8.572138834,5f3c5d4c9168ccad270ddb36,611e07ecdcc96256ae8d5b80,611e75eaf637cb315c8a7155,0.6776,
,,,,,,0,97,97,133,1,X, ,4, ,6,,2500,2.5,Jonathan,001,2021-08-19_16h17.25.521,natb3,2021.2.3,Win32,8.572138834,5f3c5d4c9168ccad270ddb36,611e07ecdcc96256ae8d5b80,611e75eaf637cb315c8a7155,,
,,,,space,,0,98,98,312,1,K, , , , ,space,2000,2,Jonathan,001,2021-08-19_16h17.25.521,natb3,2021.2.3,Win32,8.572138834,5f3c5d4c9168ccad270ddb36,611e07ecdcc96256ae8d5b80,611e75eaf637cb315c8a7155,0.6808,
,,,,space,,0,99,99,274,1,F, , , , ,space,2000,2,Jonathan,001,2021-08-19_16h17.25.521,natb3,2021.2.3,Win32,8.572138834,5f3c5d4c9168ccad270ddb36,611e07ecdcc96256ae8d5b80,611e75eaf637cb315c8a7155,0.6775,
,,,,space,,0,100,100,247,1,Z, , , , ,space,1500,1.5,Jonathan,001,2021-08-19_16h17.25.521,natb3,2021.2.3,Win32,8.572138834,5f3c5d4c9168ccad270ddb36,611e07ecdcc96256ae8d5b80,611e75eaf637cb315c8a7155,0.5462,
,,,,space,,0,101,101,48,1,A, , , , ,space,2500,2.5,Jonathan,001,2021-08-19_16h17.25.521,natb3,2021.2.3,Win32,8.572138834,5f3c5d4c9168ccad270ddb36,611e07ecdcc96256ae8d5b80,611e75eaf637cb315c8a7155,0.6837,
,,,,,,0,102,102,311,1,X,1,2,7,3,,2500,2.5,Jonathan,001,2021-08-19_16h17.25.521,natb3,2021.2.3,Win32,8.572138834,5f3c5d4c9168ccad270ddb36,611e07ecdcc96256ae8d5b80,611e75eaf637cb315c8a7155,,
,,,,space,,0,103,103,222,1,O, , , , ,space,2000,2,Jonathan,001,2021-08-19_16h17.25.521,natb3,2021.2.3,Win32,8.572138834,5f3c5d4c9168ccad270ddb36,611e07ecdcc96256ae8d5b80,611e75eaf637cb315c8a7155,0.6794,
,,,,space,,0,104,104,129,1,X,2,3,5, ,,1500,1.5,Jonathan,001,2021-08-19_16h17.25.521,natb3,2021.2.3,Win32,8.572138834,5f3c5d4c9168ccad270ddb36,611e07ecdcc96256ae8d5b80,611e75eaf637cb315c8a7155,0.5411,
,,,,space,,0,105,105,159,1,S, , , , ,space,2500,2.5,Jonathan,001,2021-08-19_16h17.25.521,natb3,2021.2.3,Win32,8.572138834,5f3c5d4c9168ccad270ddb36,611e07ecdcc96256ae8d5b80,611e75eaf637cb315c8a7155,0.6783,
,,,,space,,0,106,106,130,1,F, , , , ,space,2000,2,Jonathan,001,2021-08-19_16h17.25.521,natb3,2021.2.3,Win32,8.572138834,5f3c5d4c9168ccad270ddb36,611e07ecdcc96256ae8d5b80,611e75eaf637cb315c8a7155,0.6786,
,,,,,,0,107,107,268,1,X,6, ,3, ,,2500,2.5,Jonathan,001,2021-08-19_16h17.25.521,natb3,2021.2.3,Win32,8.572138834,5f3c5d4c9168ccad270ddb36,611e07ecdcc96256ae8d5b80,611e75eaf637cb315c8a7155,,
,,,,space,,0,108,108,88,1,J, , , , ,space,2500,2.5,Jonathan,001,2021-08-19_16h17.25.521,natb3,2021.2.3,Win32,8.572138834,5f3c5d4c9168ccad270ddb36,611e07ecdcc96256ae8d5b80,611e75eaf637cb315c8a7155,0.6804,
,,,,space,,0,109,109,75,1,U, , , , ,space,1500,1.5,Jonathan,001,2021-08-19_16h17.25.521,natb3,2021.2.3,Win32,8.572138834,5f3c5d4c9168ccad270ddb36,611e07ecdcc96256ae8d5b80,611e75eaf637cb315c8a7155,0.5408,
,,,,space,,0,110,110,11,1,P, , , , ,space,2500,2.5,Jonathan,001,2021-08-19_16h17.25.521,natb3,2021.2.3,Win32,8.572138834,5f3c5d4c9168ccad270ddb36,611e07ecdcc96256ae8d5b80,611e75eaf637cb315c8a7155,0.6782,
,,,,space,,0,111,111,37,1,E, , , , ,space,2500,2.5,Jonathan,001,2021-08-19_16h17.25.521,natb3,2021.2.3,Win32,8.572138834,5f3c5d4c9168ccad270ddb36,611e07ecdcc96256ae8d5b80,611e75eaf637cb315c8a7155,0.6805,
,,,,space,,0,112,112,70,1,E, , , , ,space,2500,2.5,Jonathan,001,2021-08-19_16h17.25.521,natb3,2021.2.3,Win32,8.572138834,5f3c5d4c9168ccad270ddb36,611e07ecdcc96256ae8d5b80,611e75eaf637cb315c8a7155,0.6827,
,,,,space,,0,113,113,230,1,U, , , , ,space,1500,1.5,Jonathan,001,2021-08-19_16h17.25.521,natb3,2021.2.3,Win32,8.572138834,5f3c5d4c9168ccad270ddb36,611e07ecdcc96256ae8d5b80,611e75eaf637cb315c8a7155,0.6828,
,,,,space,,0,114,114,231,1,I, , , , ,space,2500,2.5,Jonathan,001,2021-08-19_16h17.25.521,natb3,2021.2.3,Win32,8.572138834,5f3c5d4c9168ccad270ddb36,611e07ecdcc96256ae8d5b80,611e75eaf637cb315c8a7155,0.5442,
,,,,space,,0,115,115,319,1,V, , , , ,space,2000,2,Jonathan,001,2021-08-19_16h17.25.521,natb3,2021.2.3,Win32,8.572138834,5f3c5d4c9168ccad270ddb36,611e07ecdcc96256ae8d5b80,611e75eaf637cb315c8a7155,0.545,
,,,,space,,0,116,116,135,1,K, , , , ,space,1500,1.5,Jonathan,001,2021-08-19_16h17.25.521,natb3,2021.2.3,Win32,8.572138834,5f3c5d4c9168ccad270ddb36,611e07ecdcc96256ae8d5b80,611e75eaf637cb315c8a7155,0.5508,
,,,,,,0,117,117,322,1,X, , ,1,6,,2000,2,Jonathan,001,2021-08-19_16h17.25.521,natb3,2021.2.3,Win32,8.572138834,5f3c5d4c9168ccad270ddb36,611e07ecdcc96256ae8d5b80,611e75eaf637cb315c8a7155,,
,,,,space,,0,118,118,134,1,J, , , , ,space,2000,2,Jonathan,001,2021-08-19_16h17.25.521,natb3,2021.2.3,Win32,8.572138834,5f3c5d4c9168ccad270ddb36,611e07ecdcc96256ae8d5b80,611e75eaf637cb315c8a7155,0.6793,
,,,,space,,0,119,119,265,1,I, , , , ,space,2000,2,Jonathan,001,2021-08-19_16h17.25.521,natb3,2021.2.3,Win32,8.572138834,5f3c5d4c9168ccad270ddb36,611e07ecdcc96256ae8d5b80,611e75eaf637cb315c8a7155,0.677,
,,,,space,,0,120,120,26,1,C, , , , ,space,2000,2,Jonathan,001,2021-08-19_16h17.25.521,natb3,2021.2.3,Win32,8.572138834,5f3c5d4c9168ccad270ddb36,611e07ecdcc96256ae8d5b80,611e75eaf637cb315c8a7155,0.5436,
,,,,space,,0,121,121,302,1,X, , , , ,,2000,2,Jonathan,001,2021-08-19_16h17.25.521,natb3,2021.2.3,Win32,8.572138834,5f3c5d4c9168ccad270ddb36,611e07ecdcc96256ae8d5b80,611e75eaf637cb315c8a7155,0.5443,
,,,,space,,0,122,122,24,1,L, , , , ,space,2500,2.5,Jonathan,001,2021-08-19_16h17.25.521,natb3,2021.2.3,Win32,8.572138834,5f3c5d4c9168ccad270ddb36,611e07ecdcc96256ae8d5b80,611e75eaf637cb315c8a7155,0.6793,
,,,,,,0,123,123,263,1,X,4, ,6, ,,1500,1.5,Jonathan,001,2021-08-19_16h17.25.521,natb3,2021.2.3,Win32,8.572138834,5f3c5d4c9168ccad270ddb36,611e07ecdcc96256ae8d5b80,611e75eaf637cb315c8a7155,,
,,,,space,,0,124,124,328,1,R, , , , ,space,1500,1.5,Jonathan,001,2021-08-19_16h17.25.521,natb3,2021.2.3,Win32,8.572138834,5f3c5d4c9168ccad270ddb36,611e07ecdcc96256ae8d5b80,611e75eaf637cb315c8a7155,0.6794,
,,,,,,0,125,125,102,1,X, ,6, , ,,1500,1.5,Jonathan,001,2021-08-19_16h17.25.521,natb3,2021.2.3,Win32,8.572138834,5f3c5d4c9168ccad270ddb36,611e07ecdcc96256ae8d5b80,611e75eaf637cb315c8a7155,,
,,,,space,,0,126,126,196,1,F, , , , ,space,1500,1.5,Jonathan,001,2021-08-19_16h17.25.521,natb3,2021.2.3,Win32,8.572138834,5f3c5d4c9168ccad270ddb36,611e07ecdcc96256ae8d5b80,611e75eaf637cb315c8a7155,0.6843,
,,,,space,,0,127,127,281,1,Z, , , , ,space,1500,1.5,Jonathan,001,2021-08-19_16h17.25.521,natb3,2021.2.3,Win32,8.572138834,5f3c5d4c9168ccad270ddb36,611e07ecdcc96256ae8d5b80,611e75eaf637cb315c8a7155,0.682,
,,,,space,,0,128,128,304,1,S, , , , ,space,2000,2,Jonathan,001,2021-08-19_16h17.25.521,natb3,2021.2.3,Win32,8.572138834,5f3c5d4c9168ccad270ddb36,611e07ecdcc96256ae8d5b80,611e75eaf637cb315c8a7155,0.679,
,,,,,,0,129,129,98,1,X, , , , ,,2500,2.5,Jonathan,001,2021-08-19_16h17.25.521,natb3,2021.2.3,Win32,8.572138834,5f3c5d4c9168ccad270ddb36,611e07ecdcc96256ae8d5b80,611e75eaf637cb315c8a7155,,
,,,,space,,0,130,130,228,1,Y, , , , ,space,2000,2,Jonathan,001,2021-08-19_16h17.25.521,natb3,2021.2.3,Win32,8.572138834,5f3c5d4c9168ccad270ddb36,611e07ecdcc96256ae8d5b80,611e75eaf637cb315c8a7155,0.6805,
,,,,space,,0,131,131,224,1,W, , , , ,space,1500,1.5,Jonathan,001,2021-08-19_16h17.25.521,natb3,2021.2.3,Win32,8.572138834,5f3c5d4c9168ccad270ddb36,611e07ecdcc96256ae8d5b80,611e75eaf637cb315c8a7155,0.6793,
,,,,space,,0,132,132,117,1,T, , , , ,space,2500,2.5,Jonathan,001,2021-08-19_16h17.25.521,natb3,2021.2.3,Win32,8.572138834,5f3c5d4c9168ccad270ddb36,611e07ecdcc96256ae8d5b80,611e75eaf637cb315c8a7155,0.6825,
,,,,space,,0,133,133,113,1,W, , , , ,space,2500,2.5,Jonathan,001,2021-08-19_16h17.25.521,natb3,2021.2.3,Win32,8.572138834,5f3c5d4c9168ccad270ddb36,611e07ecdcc96256ae8d5b80,611e75eaf637cb315c8a7155,0.5427,
,,,,,,0,134,134,118,1,X, , , , ,,2000,2,Jonathan,001,2021-08-19_16h17.25.521,natb3,2021.2.3,Win32,8.572138834,5f3c5d4c9168ccad270ddb36,611e07ecdcc96256ae8d5b80,611e75eaf637cb315c8a7155,,
,,,,space,,0,135,135,303,1,A, , , , ,space,2000,2,Jonathan,001,2021-08-19_16h17.25.521,natb3,2021.2.3,Win32,8.572138834,5f3c5d4c9168ccad270ddb36,611e07ecdcc96256ae8d5b80,611e75eaf637cb315c8a7155,0.5438,
,,,,space,,0,136,136,297,1,U, , , , ,space,2000,2,Jonathan,001,2021-08-19_16h17.25.521,natb3,2021.2.3,Win32,8.572138834,5f3c5d4c9168ccad270ddb36,611e07ecdcc96256ae8d5b80,611e75eaf637cb315c8a7155,0.5402,
,,,,space,,0,137,137,109,1,U, , , , ,space,1500,1.5,Jonathan,001,2021-08-19_16h17.25.521,natb3,2021.2.3,Win32,8.572138834,5f3c5d4c9168ccad270ddb36,611e07ecdcc96256ae8d5b80,611e75eaf637cb315c8a7155,0.552,
,,,,,,0,138,138,12,1,X, , , , ,,1500,1.5,Jonathan,001,2021-08-19_16h17.25.521,natb3,2021.2.3,Win32,8.572138834,5f3c5d4c9168ccad270ddb36,611e07ecdcc96256ae8d5b80,611e75eaf637cb315c8a7155,,
,,,,space,,0,139,139,52,1,F, , , , ,space,1500,1.5,Jonathan,001,2021-08-19_16h17.25.521,natb3,2021.2.3,Win32,8.572138834,5f3c5d4c9168ccad270ddb36,611e07ecdcc96256ae8d5b80,611e75eaf637cb315c8a7155,0.5445,
,,,,space,,0,140,140,94,1,C, , , , ,space,2000,2,Jonathan,001,2021-08-19_16h17.25.521,natb3,2021.2.3,Win32,8.572138834,5f3c5d4c9168ccad270ddb36,611e07ecdcc96256ae8d5b80,611e75eaf637cb315c8a7155,0.5401,
,,,,space,,0,141,141,30,1,N, , , , ,space,2500,2.5,Jonathan,001,2021-08-19_16h17.25.521,natb3,2021.2.3,Win32,8.572138834,5f3c5d4c9168ccad270ddb36,611e07ecdcc96256ae8d5b80,611e75eaf637cb315c8a7155,0.5431,
,,,,space,,0,142,142,227,1,T, , , , ,space,1500,1.5,Jonathan,001,2021-08-19_16h17.25.521,natb3,2021.2.3,Win32,8.572138834,5f3c5d4c9168ccad270ddb36,611e07ecdcc96256ae8d5b80,611e75eaf637cb315c8a7155,0.5467,
,,,,space,,0,143,143,173,1,V, , , , ,space,1500,1.5,Jonathan,001,2021-08-19_16h17.25.521,natb3,2021.2.3,Win32,8.572138834,5f3c5d4c9168ccad270ddb36,611e07ecdcc96256ae8d5b80,611e75eaf637cb315c8a7155,0.5413,
,,,,space,,0,144,144,50,1,D, , , , ,space,1500,1.5,Jonathan,001,2021-08-19_16h17.25.521,natb3,2021.2.3,Win32,8.572138834,5f3c5d4c9168ccad270ddb36,611e07ecdcc96256ae8d5b80,611e75eaf637cb315c8a7155,0.5441,
,,,,space,,0,145,145,36,1,W, , , , ,space,2000,2,Jonathan,001,2021-08-19_16h17.25.521,natb3,2021.2.3,Win32,8.572138834,5f3c5d4c9168ccad270ddb36,611e07ecdcc96256ae8d5b80,611e75eaf637cb315c8a7155,0.684,
,,,,space,,0,146,146,286,1,N, , , , ,space,1500,1.5,Jonathan,001,2021-08-19_16h17.25.521,natb3,2021.2.3,Win32,8.572138834,5f3c5d4c9168ccad270ddb36,611e07ecdcc96256ae8d5b80,611e75eaf637cb315c8a7155,0.6818,
,,,,space,,0,147,147,256,1,Q, , , , ,space,2000,2,Jonathan,001,2021-08-19_16h17.25.521,natb3,2021.2.3,Win32,8.572138834,5f3c5d4c9168ccad270ddb36,611e07ecdcc96256ae8d5b80,611e75eaf637cb315c8a7155,0.5489,
,,,,space,,0,148,148,181,1,E, , , , ,space,1500,1.5,Jonathan,001,2021-08-19_16h17.25.521,natb3,2021.2.3,Win32,8.572138834,5f3c5d4c9168ccad270ddb36,611e07ecdcc96256ae8d5b80,611e75eaf637cb315c8a7155,0.5414,
,,,,,,0,149,149,39,1,X,6,2, , ,,1500,1.5,Jonathan,001,2021-08-19_16h17.25.521,natb3,2021.2.3,Win32,8.572138834,5f3c5d4c9168ccad270ddb36,611e07ecdcc96256ae8d5b80,611e75eaf637cb315c8a7155,,
,,,,space,,0,150,150,115,1,R, , , , ,space,1500,1.5,Jonathan,001,2021-08-19_16h17.25.521,natb3,2021.2.3,Win32,8.572138834,5f3c5d4c9168ccad270ddb36,611e07ecdcc96256ae8d5b80,611e75eaf637cb315c8a7155,0.5432,
,,,,space,,0,151,151,151,1,Y, , , , ,space,2500,2.5,Jonathan,001,2021-08-19_16h17.25.521,natb3,2021.2.3,Win32,8.572138834,5f3c5d4c9168ccad270ddb36,611e07ecdcc96256ae8d5b80,611e75eaf637cb315c8a7155,0.5409,
,,,,space,,0,152,152,208,1,B, , , , ,space,1500,1.5,Jonathan,001,2021-08-19_16h17.25.521,natb3,2021.2.3,Win32,8.572138834,5f3c5d4c9168ccad270ddb36,611e07ecdcc96256ae8d5b80,611e75eaf637cb315c8a7155,0.5422,
,,,,space,,0,153,153,258,1,E, , , , ,space,1500,1.5,Jonathan,001,2021-08-19_16h17.25.521,natb3,2021.2.3,Win32,8.572138834,5f3c5d4c9168ccad270ddb36,611e07ecdcc96256ae8d5b80,611e75eaf637cb315c8a7155,0.5447,
,,,,space,,0,154,154,253,1,N, , , , ,space,2500,2.5,Jonathan,001,2021-08-19_16h17.25.521,natb3,2021.2.3,Win32,8.572138834,5f3c5d4c9168ccad270ddb36,611e07ecdcc96256ae8d5b80,611e75eaf637cb315c8a7155,0.6821,
,,,,space,,0,155,155,126,1,A, , , , ,space,2500,2.5,Jonathan,001,2021-08-19_16h17.25.521,natb3,2021.2.3,Win32,8.572138834,5f3c5d4c9168ccad270ddb36,611e07ecdcc96256ae8d5b80,611e75eaf637cb315c8a7155,0.5428,
,,,,space,,0,156,156,142,1,N, , , , ,space,2500,2.5,Jonathan,001,2021-08-19_16h17.25.521,natb3,2021.2.3,Win32,8.572138834,5f3c5d4c9168ccad270ddb36,611e07ecdcc96256ae8d5b80,611e75eaf637cb315c8a7155,0.5428,
,,,,space,,0,157,157,320,1,B, , , , ,space,1500,1.5,Jonathan,001,2021-08-19_16h17.25.521,natb3,2021.2.3,Win32,8.572138834,5f3c5d4c9168ccad270ddb36,611e07ecdcc96256ae8d5b80,611e75eaf637cb315c8a7155,0.6871,
,,,,space,,0,158,158,279,1,K, , , , ,space,2500,2.5,Jonathan,001,2021-08-19_16h17.25.521,natb3,2021.2.3,Win32,8.572138834,5f3c5d4c9168ccad270ddb36,611e07ecdcc96256ae8d5b80,611e75eaf637cb315c8a7155,0.5415,
,,,,space,,0,159,159,239,1,X, , , , ,,2000,2,Jonathan,001,2021-08-19_16h17.25.521,natb3,2021.2.3,Win32,8.572138834,5f3c5d4c9168ccad270ddb36,611e07ecdcc96256ae8d5b80,611e75eaf637cb315c8a7155,0.5495,
,,,,,,0,160,160,43,1,X, ,6, ,2,,2500,2.5,Jonathan,001,2021-08-19_16h17.25.521,natb3,2021.2.3,Win32,8.572138834,5f3c5d4c9168ccad270ddb36,611e07ecdcc96256ae8d5b80,611e75eaf637cb315c8a7155,,
,,,,,,0,161,161,291,1,X, , , , ,,2000,2,Jonathan,001,2021-08-19_16h17.25.521,natb3,2021.2.3,Win32,8.572138834,5f3c5d4c9168ccad270ddb36,611e07ecdcc96256ae8d5b80,611e75eaf637cb315c8a7155,,
,,,,space,,0,162,162,242,1,H, , , , ,space,2500,2.5,Jonathan,001,2021-08-19_16h17.25.521,natb3,2021.2.3,Win32,8.572138834,5f3c5d4c9168ccad270ddb36,611e07ecdcc96256ae8d5b80,611e75eaf637cb315c8a7155,0.6802,
,,,,space,,0,163,163,150,1,T, , , , ,space,2500,2.5,Jonathan,001,2021-08-19_16h17.25.521,natb3,2021.2.3,Win32,8.572138834,5f3c5d4c9168ccad270ddb36,611e07ecdcc96256ae8d5b80,611e75eaf637cb315c8a7155,0.6832,
,,,,,,0,164,164,252,1,X,3, ,6,9,,2000,2,Jonathan,001,2021-08-19_16h17.25.521,natb3,2021.2.3,Win32,8.572138834,5f3c5d4c9168ccad270ddb36,611e07ecdcc96256ae8d5b80,611e75eaf637cb315c8a7155,,
,,,,space,,0,165,165,90,1,K, , , , ,space,2000,2,Jonathan,001,2021-08-19_16h17.25.521,natb3,2021.2.3,Win32,8.572138834,5f3c5d4c9168ccad270ddb36,611e07ecdcc96256ae8d5b80,611e75eaf637cb315c8a7155,0.6857,
,,,,space,,0,166,166,32,1,M, , , , ,space,1500,1.5,Jonathan,001,2021-08-19_16h17.25.521,natb3,2021.2.3,Win32,8.572138834,5f3c5d4c9168ccad270ddb36,611e07ecdcc96256ae8d5b80,611e75eaf637cb315c8a7155,0.681,
,,,,space,space,0,167,167,0,1,Q, , , , ,space,1500,1.5,Jonathan,001,2021-08-19_16h17.25.521,natb3,2021.2.3,Win32,8.572138834,5f3c5d4c9168ccad270ddb36,611e07ecdcc96256ae8d5b80,611e75eaf637cb315c8a7155,0.6793,76.3271
,,,,space,,0,168,168,40,1,T, , , , ,space,1500,1.5,Jonathan,001,2021-08-19_16h17.25.521,natb3,2021.2.3,Win32,8.572138834,5f3c5d4c9168ccad270ddb36,611e07ecdcc96256ae8d5b80,611e75eaf637cb315c8a7155,0.8186,
,,,,,,0,169,169,187,1,X, ,3,7,4,,1500,1.5,Jonathan,001,2021-08-19_16h17.25.521,natb3,2021.2.3,Win32,8.572138834,5f3c5d4c9168ccad270ddb36,611e07ecdcc96256ae8d5b80,611e75eaf637cb315c8a7155,,
,,,,,,0,170,170,51,1,X,7,5,8, ,,1500,1.5,Jonathan,001,2021-08-19_16h17.25.521,natb3,2021.2.3,Win32,8.572138834,5f3c5d4c9168ccad270ddb36,611e07ecdcc96256ae8d5b80,611e75eaf637cb315c8a7155,,
,,,,space,,0,171,171,226,1,R, , , , ,space,2000,2,Jonathan,001,2021-08-19_16h17.25.521,natb3,2021.2.3,Win32,8.572138834,5f3c5d4c9168ccad270ddb36,611e07ecdcc96256ae8d5b80,611e75eaf637cb315c8a7155,0.6799,
,,,,space,,0,172,172,163,1,G, , , , ,space,2500,2.5,Jonathan,001,2021-08-19_16h17.25.521,natb3,2021.2.3,Win32,8.572138834,5f3c5d4c9168ccad270ddb36,611e07ecdcc96256ae8d5b80,611e75eaf637cb315c8a7155,0.5438,
,,,,space,,0,173,173,308,1,G, , , , ,space,1500,1.5,Jonathan,001,2021-08-19_16h17.25.521,natb3,2021.2.3,Win32,8.572138834,5f3c5d4c9168ccad270ddb36,611e07ecdcc96256ae8d5b80,611e75eaf637cb315c8a7155,0.5427,
,,,,space,,0,174,174,307,1,F, , , , ,space,2500,2.5,Jonathan,001,2021-08-19_16h17.25.521,natb3,2021.2.3,Win32,8.572138834,5f3c5d4c9168ccad270ddb36,611e07ecdcc96256ae8d5b80,611e75eaf637cb315c8a7155,0.6834,
,,,,space,,0,175,175,73,1,Y, , , , ,space,2000,2,Jonathan,001,2021-08-19_16h17.25.521,natb3,2021.2.3,Win32,8.572138834,5f3c5d4c9168ccad270ddb36,611e07ecdcc96256ae8d5b80,611e75eaf637cb315c8a7155,0.6809,
,,,,space,,0,176,176,64,1,N, , , , ,space,2000,2,Jonathan,001,2021-08-19_16h17.25.521,natb3,2021.2.3,Win32,8.572138834,5f3c5d4c9168ccad270ddb36,611e07ecdcc96256ae8d5b80,611e75eaf637cb315c8a7155,0.6852,
,,,,space,,0,177,177,251,1,B, , , , ,space,1500,1.5,Jonathan,001,2021-08-19_16h17.25.521,natb3,2021.2.3,Win32,8.572138834,5f3c5d4c9168ccad270ddb36,611e07ecdcc96256ae8d5b80,611e75eaf637cb315c8a7155,0.5429,
,,,,space,,0,178,178,146,1,W, , , , ,space,1500,1.5,Jonathan,001,2021-08-19_16h17.25.521,natb3,2021.2.3,Win32,8.572138834,5f3c5d4c9168ccad270ddb36,611e07ecdcc96256ae8d5b80,611e75eaf637cb315c8a7155,0.5426,
,,,,space,,0,179,179,67,1,Q, , , , ,space,2000,2,Jonathan,001,2021-08-19_16h17.25.521,natb3,2021.2.3,Win32,8.572138834,5f3c5d4c9168ccad270ddb36,611e07ecdcc96256ae8d5b80,611e75eaf637cb315c8a7155,0.6847,
,,,,space,,0,180,180,261,1,T, , , , ,space,2000,2,Jonathan,001,2021-08-19_16h17.25.521,natb3,2021.2.3,Win32,8.572138834,5f3c5d4c9168ccad270ddb36,611e07ecdcc96256ae8d5b80,611e75eaf637cb315c8a7155,0.6784,
,,,,space,,0,181,181,128,1,D, , , , ,space,2500,2.5,Jonathan,001,2021-08-19_16h17.25.521,natb3,2021.2.3,Win32,8.572138834,5f3c5d4c9168ccad270ddb36,611e07ecdcc96256ae8d5b80,611e75eaf637cb315c8a7155,0.5469,
,,,,,,0,182,182,255,1,X, , , , ,,1500,1.5,Jonathan,001,2021-08-19_16h17.25.521,natb3,2021.2.3,Win32,8.572138834,5f3c5d4c9168ccad270ddb36,611e07ecdcc96256ae8d5b80,611e75eaf637cb315c8a7155,,
,,,,space,,0,183,183,86,1,G, , , , ,space,2000,2,Jonathan,001,2021-08-19_16h17.25.521,natb3,2021.2.3,Win32,8.572138834,5f3c5d4c9168ccad270ddb36,611e07ecdcc96256ae8d5b80,611e75eaf637cb315c8a7155,0.6764,
,,,,space,,0,184,184,172,1,C, , , , ,space,1500,1.5,Jonathan,001,2021-08-19_16h17.25.521,natb3,2021.2.3,Win32,8.572138834,5f3c5d4c9168ccad270ddb36,611e07ecdcc96256ae8d5b80,611e75eaf637cb315c8a7155,0.5422,
,,,,space,,0,185,185,326,1,W, , , , ,space,2000,2,Jonathan,001,2021-08-19_16h17.25.521,natb3,2021.2.3,Win32,8.572138834,5f3c5d4c9168ccad270ddb36,611e07ecdcc96256ae8d5b80,611e75eaf637cb315c8a7155,0.6783,
,,,,space,,0,186,186,221,1,I, , , , ,space,2500,2.5,Jonathan,001,2021-08-19_16h17.25.521,natb3,2021.2.3,Win32,8.572138834,5f3c5d4c9168ccad270ddb36,611e07ecdcc96256ae8d5b80,611e75eaf637cb315c8a7155,0.6764,
,,,,space,,0,187,187,205,1,C, , , , ,space,2000,2,Jonathan,001,2021-08-19_16h17.25.521,natb3,2021.2.3,Win32,8.572138834,5f3c5d4c9168ccad270ddb36,611e07ecdcc96256ae8d5b80,611e75eaf637cb315c8a7155,0.6804,
,,,,space,,0,188,188,223,1,Q, , , , ,space,2000,2,Jonathan,001,2021-08-19_16h17.25.521,natb3,2021.2.3,Win32,8.572138834,5f3c5d4c9168ccad270ddb36,611e07ecdcc96256ae8d5b80,611e75eaf637cb315c8a7155,0.542,
,,,,,,0,189,189,305,1,X, , , , ,,1500,1.5,Jonathan,001,2021-08-19_16h17.25.521,natb3,2021.2.3,Win32,8.572138834,5f3c5d4c9168ccad270ddb36,611e07ecdcc96256ae8d5b80,611e75eaf637cb315c8a7155,,
,,,,space,,0,190,190,1,1,W, , , , ,space,2000,2,Jonathan,001,2021-08-19_16h17.25.521,natb3,2021.2.3,Win32,8.572138834,5f3c5d4c9168ccad270ddb36,611e07ecdcc96256ae8d5b80,611e75eaf637cb315c8a7155,0.5436,
,,,,space,,0,191,191,55,1,H, , , , ,space,2500,2.5,Jonathan,001,2021-08-19_16h17.25.521,natb3,2021.2.3,Win32,8.572138834,5f3c5d4c9168ccad270ddb36,611e07ecdcc96256ae8d5b80,611e75eaf637cb315c8a7155,0.8209,
,,,,space,,0,192,192,229,1,X,8, ,2,6,,2500,2.5,Jonathan,001,2021-08-19_16h17.25.521,natb3,2021.2.3,Win32,8.572138834,5f3c5d4c9168ccad270ddb36,611e07ecdcc96256ae8d5b80,611e75eaf637cb315c8a7155,0.6827,
,,,,space,,0,193,193,204,1,Z, , , , ,space,2000,2,Jonathan,001,2021-08-19_16h17.25.521,natb3,2021.2.3,Win32,8.572138834,5f3c5d4c9168ccad270ddb36,611e07ecdcc96256ae8d5b80,611e75eaf637cb315c8a7155,0.5454,
,,,,space,,0,194,194,72,1,T, , , , ,space,1500,1.5,Jonathan,001,2021-08-19_16h17.25.521,natb3,2021.2.3,Win32,8.572138834,5f3c5d4c9168ccad270ddb36,611e07ecdcc96256ae8d5b80,611e75eaf637cb315c8a7155,0.5405,
,,,,,,0,195,195,138,1,X,8,5, ,3,,2000,2,Jonathan,001,2021-08-19_16h17.25.521,natb3,2021.2.3,Win32,8.572138834,5f3c5d4c9168ccad270ddb36,611e07ecdcc96256ae8d5b80,611e75eaf637cb315c8a7155,,
,,,,space,,0,196,196,25,1,Z, , , , ,space,2500,2.5,Jonathan,001,2021-08-19_16h17.25.521,natb3,2021.2.3,Win32,8.572138834,5f3c5d4c9168ccad270ddb36,611e07ecdcc96256ae8d5b80,611e75eaf637cb315c8a7155,0.541,
,,,,space,,0,197,197,105,1,R, , , , ,space,2500,2.5,Jonathan,001,2021-08-19_16h17.25.521,natb3,2021.2.3,Win32,8.572138834,5f3c5d4c9168ccad270ddb36,611e07ecdcc96256ae8d5b80,611e75eaf637cb315c8a7155,0.538,
,,,,space,,0,198,198,62,1,V, , , , ,space,1500,1.5,Jonathan,001,2021-08-19_16h17.25.521,natb3,2021.2.3,Win32,8.572138834,5f3c5d4c9168ccad270ddb36,611e07ecdcc96256ae8d5b80,611e75eaf637cb315c8a7155,0.5424,
,,,,space,,0,199,199,101,1,Q, , , , ,space,2500,2.5,Jonathan,001,2021-08-19_16h17.25.521,natb3,2021.2.3,Win32,8.572138834,5f3c5d4c9168ccad270ddb36,611e07ecdcc96256ae8d5b80,611e75eaf637cb315c8a7155,0.678,
,,,,space,,0,200,200,121,1,I, , , , ,space,2000,2,Jonathan,001,2021-08-19_16h17.25.521,natb3,2021.2.3,Win32,8.572138834,5f3c5d4c9168ccad270ddb36,611e07ecdcc96256ae8d5b80,611e75eaf637cb315c8a7155,0.6813,
,,,,space,,0,201,201,81,1,S, , , , ,space,2000,2,Jonathan,001,2021-08-19_16h17.25.521,natb3,2021.2.3,Win32,8.572138834,5f3c5d4c9168ccad270ddb36,611e07ecdcc96256ae8d5b80,611e75eaf637cb315c8a7155,0.6812,
,,,,space,,0,202,202,260,1,R, , , , ,space,2000,2,Jonathan,001,2021-08-19_16h17.25.521,natb3,2021.2.3,Win32,8.572138834,5f3c5d4c9168ccad270ddb36,611e07ecdcc96256ae8d5b80,611e75eaf637cb315c8a7155,0.6816,
,,,,space,,0,203,203,112,1,Q, , , , ,space,2500,2.5,Jonathan,001,2021-08-19_16h17.25.521,natb3,2021.2.3,Win32,8.572138834,5f3c5d4c9168ccad270ddb36,611e07ecdcc96256ae8d5b80,611e75eaf637cb315c8a7155,0.6843,
,,,,space,,0,204,204,327,1,E, , , , ,space,1500,1.5,Jonathan,001,2021-08-19_16h17.25.521,natb3,2021.2.3,Win32,8.572138834,5f3c5d4c9168ccad270ddb36,611e07ecdcc96256ae8d5b80,611e75eaf637cb315c8a7155,0.5454,
,,,,space,,0,205,205,49,1,S, , , , ,space,1500,1.5,Jonathan,001,2021-08-19_16h17.25.521,natb3,2021.2.3,Win32,8.572138834,5f3c5d4c9168ccad270ddb36,611e07ecdcc96256ae8d5b80,611e75eaf637cb315c8a7155,0.6808,
,,,,space,,0,206,206,127,1,S, , , , ,space,2500,2.5,Jonathan,001,2021-08-19_16h17.25.521,natb3,2021.2.3,Win32,8.572138834,5f3c5d4c9168ccad270ddb36,611e07ecdcc96256ae8d5b80,611e75eaf637cb315c8a7155,0.5436,
,,,,space,,0,207,207,269,1,A, , , , ,space,2500,2.5,Jonathan,001,2021-08-19_16h17.25.521,natb3,2021.2.3,Win32,8.572138834,5f3c5d4c9168ccad270ddb36,611e07ecdcc96256ae8d5b80,611e75eaf637cb315c8a7155,0.6775,
,,,,space,,0,208,208,137,1,C, , , , ,space,2500,2.5,Jonathan,001,2021-08-19_16h17.25.521,natb3,2021.2.3,Win32,8.572138834,5f3c5d4c9168ccad270ddb36,611e07ecdcc96256ae8d5b80,611e75eaf637cb315c8a7155,0.6809,
,,,,space,,0,209,209,262,1,Y, , , , ,space,2500,2.5,Jonathan,001,2021-08-19_16h17.25.521,natb3,2021.2.3,Win32,8.572138834,5f3c5d4c9168ccad270ddb36,611e07ecdcc96256ae8d5b80,611e75eaf637cb315c8a7155,0.6827,
,,,,space,,0,210,210,301,1,P, , , , ,space,1500,1.5,Jonathan,001,2021-08-19_16h17.25.521,natb3,2021.2.3,Win32,8.572138834,5f3c5d4c9168ccad270ddb36,611e07ecdcc96256ae8d5b80,611e75eaf637cb315c8a7155,0.6842,
,,,,space,,0,211,211,323,1,M, , , , ,space,2500,2.5,Jonathan,001,2021-08-19_16h17.25.521,natb3,2021.2.3,Win32,8.572138834,5f3c5d4c9168ccad270ddb36,611e07ecdcc96256ae8d5b80,611e75eaf637cb315c8a7155,0.6799,
,,,,space,,0,212,212,93,1,X,5, ,7, ,,2500,2.5,Jonathan,001,2021-08-19_16h17.25.521,natb3,2021.2.3,Win32,8.572138834,5f3c5d4c9168ccad270ddb36,611e07ecdcc96256ae8d5b80,611e75eaf637cb315c8a7155,0.5437,
,,,,space,,0,213,213,42,1,U, , , , ,space,1500,1.5,Jonathan,001,2021-08-19_16h17.25.521,natb3,2021.2.3,Win32,8.572138834,5f3c5d4c9168ccad270ddb36,611e07ecdcc96256ae8d5b80,611e75eaf637cb315c8a7155,0.6834,
,,,,space,,0,214,214,235,1,A, , , , ,space,1500,1.5,Jonathan,001,2021-08-19_16h17.25.521,natb3,2021.2.3,Win32,8.572138834,5f3c5d4c9168ccad270ddb36,611e07ecdcc96256ae8d5b80,611e75eaf637cb315c8a7155,0.5412,
,,,,space,,0,215,215,167,1,K, , , , ,space,1500,1.5,Jonathan,001,2021-08-19_16h17.25.521,natb3,2021.2.3,Win32,8.572138834,5f3c5d4c9168ccad270ddb36,611e07ecdcc96256ae8d5b80,611e75eaf637cb315c8a7155,0.6899,
,,,,space,,0,216,216,298,1,I, , , , ,space,2000,2,Jonathan,001,2021-08-19_16h17.25.521,natb3,2021.2.3,Win32,8.572138834,5f3c5d4c9168ccad270ddb36,611e07ecdcc96256ae8d5b80,611e75eaf637cb315c8a7155,0.6768,
,,,,space,,0,217,217,31,1,X, , , , ,,1500,1.5,Jonathan,001,2021-08-19_16h17.25.521,natb3,2021.2.3,Win32,8.572138834,5f3c5d4c9168ccad270ddb36,611e07ecdcc96256ae8d5b80,611e75eaf637cb315c8a7155,0.5408,
,,,,space,,0,218,218,28,1,V, , , , ,space,1500,1.5,Jonathan,001,2021-08-19_16h17.25.521,natb3,2021.2.3,Win32,8.572138834,5f3c5d4c9168ccad270ddb36,611e07ecdcc96256ae8d5b80,611e75eaf637cb315c8a7155,0.5404,
,,,,space,,0,219,219,245,1,K, , , , ,space,2000,2,Jonathan,001,2021-08-19_16h17.25.521,natb3,2021.2.3,Win32,8.572138834,5f3c5d4c9168ccad270ddb36,611e07ecdcc96256ae8d5b80,611e75eaf637cb315c8a7155,0.6872,
,,,,,,0,220,220,329,1,X,3,4, ,2,,2500,2.5,Jonathan,001,2021-08-19_16h17.25.521,natb3,2021.2.3,Win32,8.572138834,5f3c5d4c9168ccad270ddb36,611e07ecdcc96256ae8d5b80,611e75eaf637cb315c8a7155,,
,,,,space,,0,221,221,296,1,Y, , , , ,space,2500,2.5,Jonathan,001,2021-08-19_16h17.25.521,natb3,2021.2.3,Win32,8.572138834,5f3c5d4c9168ccad270ddb36,611e07ecdcc96256ae8d5b80,611e75eaf637cb315c8a7155,0.6817,
,,,,space,,0,222,222,284,1,V, , , , ,space,2500,2.5,Jonathan,001,2021-08-19_16h17.25.521,natb3,2021.2.3,Win32,8.572138834,5f3c5d4c9168ccad270ddb36,611e07ecdcc96256ae8d5b80,611e75eaf637cb315c8a7155,0.6778,
,,,,space,,0,223,223,332,1,U, , , , ,space,2000,2,Jonathan,001,2021-08-19_16h17.25.521,natb3,2021.2.3,Win32,8.572138834,5f3c5d4c9168ccad270ddb36,611e07ecdcc96256ae8d5b80,611e75eaf637cb315c8a7155,0.6827,
,,,,space,,0,224,224,155,1,O, , , , ,space,1500,1.5,Jonathan,001,2021-08-19_16h17.25.521,natb3,2021.2.3,Win32,8.572138834,5f3c5d4c9168ccad270ddb36,611e07ecdcc96256ae8d5b80,611e75eaf637cb315c8a7155,0.5456,
,,,,space,,0,225,225,53,1,G, , , , ,space,2500,2.5,Jonathan,001,2021-08-19_16h17.25.521,natb3,2021.2.3,Win32,8.572138834,5f3c5d4c9168ccad270ddb36,611e07ecdcc96256ae8d5b80,611e75eaf637cb315c8a7155,0.6772,
,,,,space,,0,226,226,19,1,G, , , , ,space,1500,1.5,Jonathan,001,2021-08-19_16h17.25.521,natb3,2021.2.3,Win32,8.572138834,5f3c5d4c9168ccad270ddb36,611e07ecdcc96256ae8d5b80,611e75eaf637cb315c8a7155,0.5437,
,,,,space,,0,227,227,214,1,W, , , , ,space,2000,2,Jonathan,001,2021-08-19_16h17.25.521,natb3,2021.2.3,Win32,8.572138834,5f3c5d4c9168ccad270ddb36,611e07ecdcc96256ae8d5b80,611e75eaf637cb315c8a7155,0.677,
,,,,space,,0,228,228,148,1,X, , , , ,,2000,2,Jonathan,001,2021-08-19_16h17.25.521,natb3,2021.2.3,Win32,8.572138834,5f3c5d4c9168ccad270ddb36,611e07ecdcc96256ae8d5b80,611e75eaf637cb315c8a7155,0.6818,
,,,,space,,0,229,229,174,1,B, , , , ,space,2500,2.5,Jonathan,001,2021-08-19_16h17.25.521,natb3,2021.2.3,Win32,8.572138834,5f3c5d4c9168ccad270ddb36,611e07ecdcc96256ae8d5b80,611e75eaf637cb315c8a7155,0.6819,
,,,,space,,0,230,230,20,1,H, , , , ,space,1500,1.5,Jonathan,001,2021-08-19_16h17.25.521,natb3,2021.2.3,Win32,8.572138834,5f3c5d4c9168ccad270ddb36,611e07ecdcc96256ae8d5b80,611e75eaf637cb315c8a7155,0.6797,
,,,,space,,0,231,231,293,1,R, , , , ,space,2500,2.5,Jonathan,001,2021-08-19_16h17.25.521,natb3,2021.2.3,Win32,8.572138834,5f3c5d4c9168ccad270ddb36,611e07ecdcc96256ae8d5b80,611e75eaf637cb315c8a7155,0.6836,
,,,,space,,0,232,232,266,1,O, , , , ,space,1500,1.5,Jonathan,001,2021-08-19_16h17.25.521,natb3,2021.2.3,Win32,8.572138834,5f3c5d4c9168ccad270ddb36,611e07ecdcc96256ae8d5b80,611e75eaf637cb315c8a7155,0.5454,
,,,,space,,0,233,233,290,1,W, , , , ,space,1500,1.5,Jonathan,001,2021-08-19_16h17.25.521,natb3,2021.2.3,Win32,8.572138834,5f3c5d4c9168ccad270ddb36,611e07ecdcc96256ae8d5b80,611e75eaf637cb315c8a7155,0.5459,
,,,,,,0,234,234,107,1,X,9,3, ,2,,2000,2,Jonathan,001,2021-08-19_16h17.25.521,natb3,2021.2.3,Win32,8.572138834,5f3c5d4c9168ccad270ddb36,611e07ecdcc96256ae8d5b80,611e75eaf637cb315c8a7155,,
,,,,,,0,235,235,248,1,X, ,1,5, ,,1500,1.5,Jonathan,001,2021-08-19_16h17.25.521,natb3,2021.2.3,Win32,8.572138834,5f3c5d4c9168ccad270ddb36,611e07ecdcc96256ae8d5b80,611e75eaf637cb315c8a7155,,
,,,,,,0,236,236,203,1,X, , , , ,,2500,2.5,Jonathan,001,2021-08-19_16h17.25.521,natb3,2021.2.3,Win32,8.572138834,5f3c5d4c9168ccad270ddb36,611e07ecdcc96256ae8d5b80,611e75eaf637cb315c8a7155,,
,,,,space,,0,237,237,309,1,H, , , , ,space,2500,2.5,Jonathan,001,2021-08-19_16h17.25.521,natb3,2021.2.3,Win32,8.572138834,5f3c5d4c9168ccad270ddb36,611e07ecdcc96256ae8d5b80,611e75eaf637cb315c8a7155,0.6779,
,,,,space,,0,238,238,45,1,O, , , , ,space,2000,2,Jonathan,001,2021-08-19_16h17.25.521,natb3,2021.2.3,Win32,8.572138834,5f3c5d4c9168ccad270ddb36,611e07ecdcc96256ae8d5b80,611e75eaf637cb315c8a7155,0.6805,
,,,,,,0,239,239,182,1,X, , , , ,,1500,1.5,Jonathan,001,2021-08-19_16h17.25.521,natb3,2021.2.3,Win32,8.572138834,5f3c5d4c9168ccad270ddb36,611e07ecdcc96256ae8d5b80,611e75eaf637cb315c8a7155,,
,,,,space,,0,240,240,178,1,Q, , , , ,space,1500,1.5,Jonathan,001,2021-08-19_16h17.25.521,natb3,2021.2.3,Win32,8.572138834,5f3c5d4c9168ccad270ddb36,611e07ecdcc96256ae8d5b80,611e75eaf637cb315c8a7155,0.6867,
,,,,space,,0,241,241,8,1,U, , , , ,space,1500,1.5,Jonathan,001,2021-08-19_16h17.25.521,natb3,2021.2.3,Win32,8.572138834,5f3c5d4c9168ccad270ddb36,611e07ecdcc96256ae8d5b80,611e75eaf637cb315c8a7155,0.6879,
,,,,space,,0,242,242,292,1,E, , , , ,space,2000,2,Jonathan,001,2021-08-19_16h17.25.521,natb3,2021.2.3,Win32,8.572138834,5f3c5d4c9168ccad270ddb36,611e07ecdcc96256ae8d5b80,611e75eaf637cb315c8a7155,0.6796,
,,,,space,,0,243,243,58,1,L, , , , ,space,2000,2,Jonathan,001,2021-08-19_16h17.25.521,natb3,2021.2.3,Win32,8.572138834,5f3c5d4c9168ccad270ddb36,611e07ecdcc96256ae8d5b80,611e75eaf637cb315c8a7155,0.8188,
,,,,space,,0,244,244,246,1,L, , , , ,space,2500,2.5,Jonathan,001,2021-08-19_16h17.25.521,natb3,2021.2.3,Win32,8.572138834,5f3c5d4c9168ccad270ddb36,611e07ecdcc96256ae8d5b80,611e75eaf637cb315c8a7155,0.6856,
,,,,space,,0,245,245,44,1,I, , , , ,space,2500,2.5,Jonathan,001,2021-08-19_16h17.25.521,natb3,2021.2.3,Win32,8.572138834,5f3c5d4c9168ccad270ddb36,611e07ecdcc96256ae8d5b80,611e75eaf637cb315c8a7155,0.6822,
,,,,space,,0,246,246,264,1,U, , , , ,space,2000,2,Jonathan,001,2021-08-19_16h17.25.521,natb3,2021.2.3,Win32,8.572138834,5f3c5d4c9168ccad270ddb36,611e07ecdcc96256ae8d5b80,611e75eaf637cb315c8a7155,0.6777,
,,,,space,,0,247,247,103,1,W, , , , ,space,2000,2,Jonathan,001,2021-08-19_16h17.25.521,natb3,2021.2.3,Win32,8.572138834,5f3c5d4c9168ccad270ddb36,611e07ecdcc96256ae8d5b80,611e75eaf637cb315c8a7155,0.5402,
,,,,space,,0,248,248,97,1,B, , , , ,space,2500,2.5,Jonathan,001,2021-08-19_16h17.25.521,natb3,2021.2.3,Win32,8.572138834,5f3c5d4c9168ccad270ddb36,611e07ecdcc96256ae8d5b80,611e75eaf637cb315c8a7155,0.6803,
,,,,space,,0,249,249,33,1,X, , , , ,,1500,1.5,Jonathan,001,2021-08-19_16h17.25.521,natb3,2021.2.3,Win32,8.572138834,5f3c5d4c9168ccad270ddb36,611e07ecdcc96256ae8d5b80,611e75eaf637cb315c8a7155,0.5441,
,,,,space,,0,250,250,106,1,T, , , , ,space,1500,1.5,Jonathan,001,2021-08-19_16h17.25.521,natb3,2021.2.3,Win32,8.572138834,5f3c5d4c9168ccad270ddb36,611e07ecdcc96256ae8d5b80,611e75eaf637cb315c8a7155,0.6785,
,,,,,,0,251,251,84,1,X, , , , ,,2000,2,Jonathan,001,2021-08-19_16h17.25.521,natb3,2021.2.3,Win32,8.572138834,5f3c5d4c9168ccad270ddb36,611e07ecdcc96256ae8d5b80,611e75eaf637cb315c8a7155,,
,,,,space,,0,252,252,6,1,Y, , , , ,space,2500,2.5,Jonathan,001,2021-08-19_16h17.25.521,natb3,2021.2.3,Win32,8.572138834,5f3c5d4c9168ccad270ddb36,611e07ecdcc96256ae8d5b80,611e75eaf637cb315c8a7155,0.678,
,,,,space,,0,253,253,2,1,E, , , , ,space,2500,2.5,Jonathan,001,2021-08-19_16h17.25.521,natb3,2021.2.3,Win32,8.572138834,5f3c5d4c9168ccad270ddb36,611e07ecdcc96256ae8d5b80,611e75eaf637cb315c8a7155,0.6791,
,,,,space,,0,254,254,125,1,X, , , , ,,2000,2,Jonathan,001,2021-08-19_16h17.25.521,natb3,2021.2.3,Win32,8.572138834,5f3c5d4c9168ccad270ddb36,611e07ecdcc96256ae8d5b80,611e75eaf637cb315c8a7155,0.6842,
,,,,space,,0,255,255,111,1,O, , , , ,space,2000,2,Jonathan,001,2021-08-19_16h17.25.521,natb3,2021.2.3,Win32,8.572138834,5f3c5d4c9168ccad270ddb36,611e07ecdcc96256ae8d5b80,611e75eaf637cb315c8a7155,0.6802,
,,,,,,0,256,256,236,1,X,3, ,4,7,,2500,2.5,Jonathan,001,2021-08-19_16h17.25.521,natb3,2021.2.3,Win32,8.572138834,5f3c5d4c9168ccad270ddb36,611e07ecdcc96256ae8d5b80,611e75eaf637cb315c8a7155,,
,,,,,,0,257,257,243,1,X, , , , ,,2500,2.5,Jonathan,001,2021-08-19_16h17.25.521,natb3,2021.2.3,Win32,8.572138834,5f3c5d4c9168ccad270ddb36,611e07ecdcc96256ae8d5b80,611e75eaf637cb315c8a7155,,
,,,,space,,0,258,258,288,1,M, , , , ,space,1500,1.5,Jonathan,001,2021-08-19_16h17.25.521,natb3,2021.2.3,Win32,8.572138834,5f3c5d4c9168ccad270ddb36,611e07ecdcc96256ae8d5b80,611e75eaf637cb315c8a7155,0.6798,
,,,,space,,0,259,259,220,1,U, , , , ,space,2500,2.5,Jonathan,001,2021-08-19_16h17.25.521,natb3,2021.2.3,Win32,8.572138834,5f3c5d4c9168ccad270ddb36,611e07ecdcc96256ae8d5b80,611e75eaf637cb315c8a7155,0.687,
,,,,space,,0,260,260,194,1,D, , , , ,space,2000,2,Jonathan,001,2021-08-19_16h17.25.521,natb3,2021.2.3,Win32,8.572138834,5f3c5d4c9168ccad270ddb36,611e07ecdcc96256ae8d5b80,611e75eaf637cb315c8a7155,0.6773,
,,,,,,0,261,261,313,1,X, , , , ,,2500,2.5,Jonathan,001,2021-08-19_16h17.25.521,natb3,2021.2.3,Win32,8.572138834,5f3c5d4c9168ccad270ddb36,611e07ecdcc96256ae8d5b80,611e75eaf637cb315c8a7155,,
,,,,space,,0,262,262,237,1,S, , , , ,space,1500,1.5,Jonathan,001,2021-08-19_16h17.25.521,natb3,2021.2.3,Win32,8.572138834,5f3c5d4c9168ccad270ddb36,611e07ecdcc96256ae8d5b80,611e75eaf637cb315c8a7155,0.6813,
,,,,space,,0,263,263,9,1,I, , , , ,space,1500,1.5,Jonathan,001,2021-08-19_16h17.25.521,natb3,2021.2.3,Win32,8.572138834,5f3c5d4c9168ccad270ddb36,611e07ecdcc96256ae8d5b80,611e75eaf637cb315c8a7155,0.68,
,,,,space,,0,264,264,14,1,S, , , , ,space,2500,2.5,Jonathan,001,2021-08-19_16h17.25.521,natb3,2021.2.3,Win32,8.572138834,5f3c5d4c9168ccad270ddb36,611e07ecdcc96256ae8d5b80,611e75eaf637cb315c8a7155,0.821,
,,,,space,,0,265,265,120,1,U, , , , ,space,1500,1.5,Jonathan,001,2021-08-19_16h17.25.521,natb3,2021.2.3,Win32,8.572138834,5f3c5d4c9168ccad270ddb36,611e07ecdcc96256ae8d5b80,611e75eaf637cb315c8a7155,0.6798,
,,,,space,,0,266,266,310,1,J, , , , ,space,2500,2.5,Jonathan,001,2021-08-19_16h17.25.521,natb3,2021.2.3,Win32,8.572138834,5f3c5d4c9168ccad270ddb36,611e07ecdcc96256ae8d5b80,611e75eaf637cb315c8a7155,0.6796,
,,,,space,,0,267,267,186,1,U, , , , ,space,2500,2.5,Jonathan,001,2021-08-19_16h17.25.521,natb3,2021.2.3,Win32,8.572138834,5f3c5d4c9168ccad270ddb36,611e07ecdcc96256ae8d5b80,611e75eaf637cb315c8a7155,0.6823,
,,,,space,,0,268,268,219,1,Y, , , , ,space,2000,2,Jonathan,001,2021-08-19_16h17.25.521,natb3,2021.2.3,Win32,8.572138834,5f3c5d4c9168ccad270ddb36,611e07ecdcc96256ae8d5b80,611e75eaf637cb315c8a7155,0.6784,
,,,,space,,0,269,269,321,1,N, , , , ,space,2000,2,Jonathan,001,2021-08-19_16h17.25.521,natb3,2021.2.3,Win32,8.572138834,5f3c5d4c9168ccad270ddb36,611e07ecdcc96256ae8d5b80,611e75eaf637cb315c8a7155,0.5396,
,,,,space,,0,270,270,144,1,Q, , , , ,space,2500,2.5,Jonathan,001,2021-08-19_16h17.25.521,natb3,2021.2.3,Win32,8.572138834,5f3c5d4c9168ccad270ddb36,611e07ecdcc96256ae8d5b80,611e75eaf637cb315c8a7155,0.5431,
,,,,,,0,271,271,141,1,X,1, ,4,6,,1500,1.5,Jonathan,001,2021-08-19_16h17.25.521,natb3,2021.2.3,Win32,8.572138834,5f3c5d4c9168ccad270ddb36,611e07ecdcc96256ae8d5b80,611e75eaf637cb315c8a7155,,
,,,,space,,0,272,272,234,1,P, , , , ,space,2000,2,Jonathan,001,2021-08-19_16h17.25.521,natb3,2021.2.3,Win32,8.572138834,5f3c5d4c9168ccad270ddb36,611e07ecdcc96256ae8d5b80,611e75eaf637cb315c8a7155,0.6778,
,,,,,,0,273,273,233,1,X, ,2, ,5,,1500,1.5,Jonathan,001,2021-08-19_16h17.25.521,natb3,2021.2.3,Win32,8.572138834,5f3c5d4c9168ccad270ddb36,611e07ecdcc96256ae8d5b80,611e75eaf637cb315c8a7155,,
,,,,,,0,274,274,162,1,X,1,6, ,2,,1500,1.5,Jonathan,001,2021-08-19_16h17.25.521,natb3,2021.2.3,Win32,8.572138834,5f3c5d4c9168ccad270ddb36,611e07ecdcc96256ae8d5b80,611e75eaf637cb315c8a7155,,
,,,,,,0,275,275,211,1,X, , , , ,,2500,2.5,Jonathan,001,2021-08-19_16h17.25.521,natb3,2021.2.3,Win32,8.572138834,5f3c5d4c9168ccad270ddb36,611e07ecdcc96256ae8d5b80,611e75eaf637cb315c8a7155,,
,,,,space,,0,276,276,188,1,I, , , , ,space,2500,2.5,Jonathan,001,2021-08-19_16h17.25.521,natb3,2021.2.3,Win32,8.572138834,5f3c5d4c9168ccad270ddb36,611e07ecdcc96256ae8d5b80,611e75eaf637cb315c8a7155,0.6805,
,,,,,,0,277,277,191,1,X,1, ,3,4,,2500,2.5,Jonathan,001,2021-08-19_16h17.25.521,natb3,2021.2.3,Win32,8.572138834,5f3c5d4c9168ccad270ddb36,611e07ecdcc96256ae8d5b80,611e75eaf637cb315c8a7155,,
,,,,space,,0,278,278,17,1,F, , , , ,space,2500,2.5,Jonathan,001,2021-08-19_16h17.25.521,natb3,2021.2.3,Win32,8.572138834,5f3c5d4c9168ccad270ddb36,611e07ecdcc96256ae8d5b80,611e75eaf637cb315c8a7155,0.6778,
,,,,,,0,279,279,54,1,X, , , , ,,2000,2,Jonathan,001,2021-08-19_16h17.25.521,natb3,2021.2.3,Win32,8.572138834,5f3c5d4c9168ccad270ddb36,611e07ecdcc96256ae8d5b80,611e75eaf637cb315c8a7155,,
,,,,,,0,280,280,171,1,X, , , , ,,1500,1.5,Jonathan,001,2021-08-19_16h17.25.521,natb3,2021.2.3,Win32,8.572138834,5f3c5d4c9168ccad270ddb36,611e07ecdcc96256ae8d5b80,611e75eaf637cb315c8a7155,,
,,,,,,0,281,281,218,1,X,1,3, ,8,,1500,1.5,Jonathan,001,2021-08-19_16h17.25.521,natb3,2021.2.3,Win32,8.572138834,5f3c5d4c9168ccad270ddb36,611e07ecdcc96256ae8d5b80,611e75eaf637cb315c8a7155,,
,,,,,,0,282,282,325,1,X, , , , ,,2500,2.5,Jonathan,001,2021-08-19_16h17.25.521,natb3,2021.2.3,Win32,8.572138834,5f3c5d4c9168ccad270ddb36,611e07ecdcc96256ae8d5b80,611e75eaf637cb315c8a7155,,
,,,,space,,0,283,283,156,1,P, , , , ,space,1500,1.5,Jonathan,001,2021-08-19_16h17.25.521,natb3,2021.2.3,Win32,8.572138834,5f3c5d4c9168ccad270ddb36,611e07ecdcc96256ae8d5b80,611e75eaf637cb315c8a7155,0.6774,
,,,,space,,0,284,284,249,1,C, , , , ,space,2000,2,Jonathan,001,2021-08-19_16h17.25.521,natb3,2021.2.3,Win32,8.572138834,5f3c5d4c9168ccad270ddb36,611e07ecdcc96256ae8d5b80,611e75eaf637cb315c8a7155,0.6834,
,,,,space,,0,285,285,29,1,B, , , , ,space,1500,1.5,Jonathan,001,2021-08-19_16h17.25.521,natb3,2021.2.3,Win32,8.572138834,5f3c5d4c9168ccad270ddb36,611e07ecdcc96256ae8d5b80,611e75eaf637cb315c8a7155,0.6867,
,,,,space,,0,286,286,280,1,L, , , , ,space,1500,1.5,Jonathan,001,2021-08-19_16h17.25.521,natb3,2021.2.3,Win32,8.572138834,5f3c5d4c9168ccad270ddb36,611e07ecdcc96256ae8d5b80,611e75eaf637cb315c8a7155,0.6857,
,,,,space,,0,287,287,168,1,X, , , , ,,2500,2.5,Jonathan,001,2021-08-19_16h17.25.521,natb3,2021.2.3,Win32,8.572138834,5f3c5d4c9168ccad270ddb36,611e07ecdcc96256ae8d5b80,611e75eaf637cb315c8a7155,0.6824,
,,,,space,,0,288,288,57,1,K, , , , ,space,2500,2.5,Jonathan,001,2021-08-19_16h17.25.521,natb3,2021.2.3,Win32,8.572138834,5f3c5d4c9168ccad270ddb36,611e07ecdcc96256ae8d5b80,611e75eaf637cb315c8a7155,0.679,
,,,,space,,0,289,289,147,1,E, , , , ,space,2000,2,Jonathan,001,2021-08-19_16h17.25.521,natb3,2021.2.3,Win32,8.572138834,5f3c5d4c9168ccad270ddb36,611e07ecdcc96256ae8d5b80,611e75eaf637cb315c8a7155,0.6771,
,,,,space,,0,290,290,190,1,P, , , , ,space,2000,2,Jonathan,001,2021-08-19_16h17.25.521,natb3,2021.2.3,Win32,8.572138834,5f3c5d4c9168ccad270ddb36,611e07ecdcc96256ae8d5b80,611e75eaf637cb315c8a7155,0.6876,
,,,,space,,0,291,291,283,1,C, , , , ,space,1500,1.5,Jonathan,001,2021-08-19_16h17.25.521,natb3,2021.2.3,Win32,8.572138834,5f3c5d4c9168ccad270ddb36,611e07ecdcc96256ae8d5b80,611e75eaf637cb315c8a7155,0.6815,
,,,,space,,0,292,292,197,1,G, , , , ,space,2500,2.5,Jonathan,001,2021-08-19_16h17.25.521,natb3,2021.2.3,Win32,8.572138834,5f3c5d4c9168ccad270ddb36,611e07ecdcc96256ae8d5b80,611e75eaf637cb315c8a7155,0.6813,
,,,,space,,0,293,293,56,1,J, , , , ,space,1500,1.5,Jonathan,001,2021-08-19_16h17.25.521,natb3,2021.2.3,Win32,8.572138834,5f3c5d4c9168ccad270ddb36,611e07ecdcc96256ae8d5b80,611e75eaf637cb315c8a7155,0.6807,
,,,,space,,0,294,294,216,1,R, , , , ,space,1500,1.5,Jonathan,001,2021-08-19_16h17.25.521,natb3,2021.2.3,Win32,8.572138834,5f3c5d4c9168ccad270ddb36,611e07ecdcc96256ae8d5b80,611e75eaf637cb315c8a7155,0.6816,
,,,,space,,0,295,295,330,1,T, , , , ,space,2500,2.5,Jonathan,001,2021-08-19_16h17.25.521,natb3,2021.2.3,Win32,8.572138834,5f3c5d4c9168ccad270ddb36,611e07ecdcc96256ae8d5b80,611e75eaf637cb315c8a7155,0.544,
,,,,space,,0,296,296,169,1,L, , , , ,space,2500,2.5,Jonathan,001,2021-08-19_16h17.25.521,natb3,2021.2.3,Win32,8.572138834,5f3c5d4c9168ccad270ddb36,611e07ecdcc96256ae8d5b80,611e75eaf637cb315c8a7155,0.5401,
,,,,space,,0,297,297,250,1,V, , , , ,space,2000,2,Jonathan,001,2021-08-19_16h17.25.521,natb3,2021.2.3,Win32,8.572138834,5f3c5d4c9168ccad270ddb36,611e07ecdcc96256ae8d5b80,611e75eaf637cb315c8a7155,0.5446,
,,,,space,,0,298,298,275,1,G, , , , ,space,1500,1.5,Jonathan,001,2021-08-19_16h17.25.521,natb3,2021.2.3,Win32,8.572138834,5f3c5d4c9168ccad270ddb36,611e07ecdcc96256ae8d5b80,611e75eaf637cb315c8a7155,0.5431,
,,,,space,,0,299,299,95,1,V, , , , ,space,1500,1.5,Jonathan,001,2021-08-19_16h17.25.521,natb3,2021.2.3,Win32,8.572138834,5f3c5d4c9168ccad270ddb36,611e07ecdcc96256ae8d5b80,611e75eaf637cb315c8a7155,0.5417,
,,,,space,,0,300,300,68,1,W, , , , ,space,2500,2.5,Jonathan,001,2021-08-19_16h17.25.521,natb3,2021.2.3,Win32,8.572138834,5f3c5d4c9168ccad270ddb36,611e07ecdcc96256ae8d5b80,611e75eaf637cb315c8a7155,0.679,
,,,,space,,0,301,301,114,1,E, , , , ,space,2000,2,Jonathan,001,2021-08-19_16h17.25.521,natb3,2021.2.3,Win32,8.572138834,5f3c5d4c9168ccad270ddb36,611e07ecdcc96256ae8d5b80,611e75eaf637cb315c8a7155,0.6785,
,,,,,,0,302,302,299,1,X, , , , ,,2500,2.5,Jonathan,001,2021-08-19_16h17.25.521,natb3,2021.2.3,Win32,8.572138834,5f3c5d4c9168ccad270ddb36,611e07ecdcc96256ae8d5b80,611e75eaf637cb315c8a7155,,
,,,,space,,0,303,303,276,1,H, , , , ,space,2000,2,Jonathan,001,2021-08-19_16h17.25.521,natb3,2021.2.3,Win32,8.572138834,5f3c5d4c9168ccad270ddb36,611e07ecdcc96256ae8d5b80,611e75eaf637cb315c8a7155,0.5428,
,,,,space,,0,304,304,61,1,C, , , , ,space,2000,2,Jonathan,001,2021-08-19_16h17.25.521,natb3,2021.2.3,Win32,8.572138834,5f3c5d4c9168ccad270ddb36,611e07ecdcc96256ae8d5b80,611e75eaf637cb315c8a7155,0.6839,
,,,,space,,0,305,305,238,1,D, , , , ,space,1500,1.5,Jonathan,001,2021-08-19_16h17.25.521,natb3,2021.2.3,Win32,8.572138834,5f3c5d4c9168ccad270ddb36,611e07ecdcc96256ae8d5b80,611e75eaf637cb315c8a7155,0.5463,
,,,,space,,0,306,306,177,1,M, , , , ,space,2500,2.5,Jonathan,001,2021-08-19_16h17.25.521,natb3,2021.2.3,Win32,8.572138834,5f3c5d4c9168ccad270ddb36,611e07ecdcc96256ae8d5b80,611e75eaf637cb315c8a7155,0.6787,
,,,,space,,0,307,307,202,1,L, , , , ,space,2500,2.5,Jonathan,001,2021-08-19_16h17.25.521,natb3,2021.2.3,Win32,8.572138834,5f3c5d4c9168ccad270ddb36,611e07ecdcc96256ae8d5b80,611e75eaf637cb315c8a7155,0.5625,
,,,,space,,0,308,308,166,1,X, , , , ,,2000,2,Jonathan,001,2021-08-19_16h17.25.521,natb3,2021.2.3,Win32,8.572138834,5f3c5d4c9168ccad270ddb36,611e07ecdcc96256ae8d5b80,611e75eaf637cb315c8a7155,0.5526,
,,,,space,,0,309,309,154,1,I, , , , ,space,2500,2.5,Jonathan,001,2021-08-19_16h17.25.521,natb3,2021.2.3,Win32,8.572138834,5f3c5d4c9168ccad270ddb36,611e07ecdcc96256ae8d5b80,611e75eaf637cb315c8a7155,0.8153,
,,,,space,,0,310,310,21,1,J, , , , ,space,1500,1.5,Jonathan,001,2021-08-19_16h17.25.521,natb3,2021.2.3,Win32,8.572138834,5f3c5d4c9168ccad270ddb36,611e07ecdcc96256ae8d5b80,611e75eaf637cb315c8a7155,0.6766,
,,,,,,0,311,311,315,1,X, , , , ,,2500,2.5,Jonathan,001,2021-08-19_16h17.25.521,natb3,2021.2.3,Win32,8.572138834,5f3c5d4c9168ccad270ddb36,611e07ecdcc96256ae8d5b80,611e75eaf637cb315c8a7155,,
,,,,space,,0,312,312,184,1,T, , , , ,space,2000,2,Jonathan,001,2021-08-19_16h17.25.521,natb3,2021.2.3,Win32,8.572138834,5f3c5d4c9168ccad270ddb36,611e07ecdcc96256ae8d5b80,611e75eaf637cb315c8a7155,0.6768,
,,,,,,0,313,313,158,1,X, , , , ,,1500,1.5,Jonathan,001,2021-08-19_16h17.25.521,natb3,2021.2.3,Win32,8.572138834,5f3c5d4c9168ccad270ddb36,611e07ecdcc96256ae8d5b80,611e75eaf637cb315c8a7155,,
,,,,space,,0,314,314,119,1,Y, , , , ,space,2500,2.5,Jonathan,001,2021-08-19_16h17.25.521,natb3,2021.2.3,Win32,8.572138834,5f3c5d4c9168ccad270ddb36,611e07ecdcc96256ae8d5b80,611e75eaf637cb315c8a7155,0.685,
,,,,,,0,315,315,282,1,X, , , , ,,2500,2.5,Jonathan,001,2021-08-19_16h17.25.521,natb3,2021.2.3,Win32,8.572138834,5f3c5d4c9168ccad270ddb36,611e07ecdcc96256ae8d5b80,611e75eaf637cb315c8a7155,,
,,,,space,,0,316,316,99,1,N, , , , ,space,2500,2.5,Jonathan,001,2021-08-19_16h17.25.521,natb3,2021.2.3,Win32,8.572138834,5f3c5d4c9168ccad270ddb36,611e07ecdcc96256ae8d5b80,611e75eaf637cb315c8a7155,0.676,
,,,,space,,0,317,317,189,1,O, , , , ,space,1500,1.5,Jonathan,001,2021-08-19_16h17.25.521,natb3,2021.2.3,Win32,8.572138834,5f3c5d4c9168ccad270ddb36,611e07ecdcc96256ae8d5b80,611e75eaf637cb315c8a7155,0.6775,
,,,,space,,0,318,318,192,1,A, , , , ,space,2000,2,Jonathan,001,2021-08-19_16h17.25.521,natb3,2021.2.3,Win32,8.572138834,5f3c5d4c9168ccad270ddb36,611e07ecdcc96256ae8d5b80,611e75eaf637cb315c8a7155,0.6811,
,,,,space,,0,319,319,294,1,T, , , , ,space,2000,2,Jonathan,001,2021-08-19_16h17.25.521,natb3,2021.2.3,Win32,8.572138834,5f3c5d4c9168ccad270ddb36,611e07ecdcc96256ae8d5b80,611e75eaf637cb315c8a7155,0.5475,
,,,,space,,0,320,320,13,1,A, , , , ,space,2000,2,Jonathan,001,2021-08-19_16h17.25.521,natb3,2021.2.3,Win32,8.572138834,5f3c5d4c9168ccad270ddb36,611e07ecdcc96256ae8d5b80,611e75eaf637cb315c8a7155,0.5414,
,,,,space,,0,321,321,83,1,D, , , , ,space,2000,2,Jonathan,001,2021-08-19_16h17.25.521,natb3,2021.2.3,Win32,8.572138834,5f3c5d4c9168ccad270ddb36,611e07ecdcc96256ae8d5b80,611e75eaf637cb315c8a7155,0.6802,
,,,,space,,0,322,322,317,1,C, , , , ,space,2000,2,Jonathan,001,2021-08-19_16h17.25.521,natb3,2021.2.3,Win32,8.572138834,5f3c5d4c9168ccad270ddb36,611e07ecdcc96256ae8d5b80,611e75eaf637cb315c8a7155,0.5448,
,,,,space,,0,323,323,41,1,Y, , , , ,space,2500,2.5,Jonathan,001,2021-08-19_16h17.25.521,natb3,2021.2.3,Win32,8.572138834,5f3c5d4c9168ccad270ddb36,611e07ecdcc96256ae8d5b80,611e75eaf637cb315c8a7155,0.6795,
,,,,space,,0,324,324,334,1,O, , , , ,space,1500,1.5,Jonathan,001,2021-08-19_16h17.25.521,natb3,2021.2.3,Win32,8.572138834,5f3c5d4c9168ccad270ddb36,611e07ecdcc96256ae8d5b80,611e75eaf637cb315c8a7155,0.5442,
,,,,,,0,325,325,175,1,X,7, ,4,2,,1500,1.5,Jonathan,001,2021-08-19_16h17.25.521,natb3,2021.2.3,Win32,8.572138834,5f3c5d4c9168ccad270ddb36,611e07ecdcc96256ae8d5b80,611e75eaf637cb315c8a7155,,
,,,,space,,0,326,326,209,1,N, , , , ,space,2000,2,Jonathan,001,2021-08-19_16h17.25.521,natb3,2021.2.3,Win32,8.572138834,5f3c5d4c9168ccad270ddb36,611e07ecdcc96256ae8d5b80,611e75eaf637cb315c8a7155,0.6761,
,,,,,,0,327,327,89,1,X,3, , , ,,2000,2,Jonathan,001,2021-08-19_16h17.25.521,natb3,2021.2.3,Win32,8.572138834,5f3c5d4c9168ccad270ddb36,611e07ecdcc96256ae8d5b80,611e75eaf637cb315c8a7155,,
,,,,space,,0,328,328,143,1,M, , , , ,space,2500,2.5,Jonathan,001,2021-08-19_16h17.25.521,natb3,2021.2.3,Win32,8.572138834,5f3c5d4c9168ccad270ddb36,611e07ecdcc96256ae8d5b80,611e75eaf637cb315c8a7155,0.6798,
,,,,,,0,329,329,116,1,X, , , , ,,2000,2,Jonathan,001,2021-08-19_16h17.25.521,natb3,2021.2.3,Win32,8.572138834,5f3c5d4c9168ccad270ddb36,611e07ecdcc96256ae8d5b80,611e75eaf637cb315c8a7155,,
,,,,space,,0,330,330,170,1,Z, , , , ,space,2000,2,Jonathan,001,2021-08-19_16h17.25.521,natb3,2021.2.3,Win32,8.572138834,5f3c5d4c9168ccad270ddb36,611e07ecdcc96256ae8d5b80,611e75eaf637cb315c8a7155,0.6809,
,,,,,,0,331,331,4,1,X, , , , ,,2000,2,Jonathan,001,2021-08-19_16h17.25.521,natb3,2021.2.3,Win32,8.572138834,5f3c5d4c9168ccad270ddb36,611e07ecdcc96256ae8d5b80,611e75eaf637cb315c8a7155,,
,,,,space,,0,332,332,210,1,M, , , , ,space,1500,1.5,Jonathan,001,2021-08-19_16h17.25.521,natb3,2021.2.3,Win32,8.572138834,5f3c5d4c9168ccad270ddb36,611e07ecdcc96256ae8d5b80,611e75eaf637cb315c8a7155,0.8286,
,,,,space,,0,333,333,160,1,D, , , , ,space,1500,1.5,Jonathan,001,2021-08-19_16h17.25.521,natb3,2021.2.3,Win32,8.572138834,5f3c5d4c9168ccad270ddb36,611e07ecdcc96256ae8d5b80,611e75eaf637cb315c8a7155,0.6808,
,,,,space,,0,334,334,5,1,T, , , , ,space,2000,2,Jonathan,001,2021-08-19_16h17.25.521,natb3,2021.2.3,Win32,8.572138834,5f3c5d4c9168ccad270ddb36,611e07ecdcc96256ae8d5b80,611e75eaf637cb315c8a7155,0.6789,
,,,,,,0,335,335,153,1,X,4,7, ,6,,2000,2,Jonathan,001,2021-08-19_16h17.25.521,natb3,2021.2.3,Win32,8.572138834,5f3c5d4c9168ccad270ddb36,611e07ecdcc96256ae8d5b80,611e75eaf637cb315c8a7155,,
