key_resp_2.keys,key_resp_2.rt,key_resp_3.keys,key_resp_3.rt,key_resp.keys,key_resp.rt,key_resp_4.keys,trials.thisRepN,trials.thisTrialN,trials.thisN,trials.thisIndex,trials.ran,stimulus,distractor1,distractor2,distractor3,distractor4,CorrAns,isi_duration,isi_dur_in_seconds,participant,session,date,expName,psychopyVersion,OS,frameRate,PROLIFIC_PID,STUDY_ID,SESSION_ID,key_resp_4.rt
return,12.644,space,6.616,space,0.328,,0,0,0,183,1,R, , , , ,space,1500,1.5,Matt,001,2021-08-19_15h46.29,natb3,2021.2.3,MacIntel,66.66666667,611c77297d20cccefc24d80a,611e07ecdcc96256ae8d5b80,611e6ded028505af9a0773a4,
,,,,space,0.368,,0,1,1,3,1,R, , , , ,space,2000,2,Matt,001,2021-08-19_15h46.29,natb3,2021.2.3,MacIntel,66.66666667,611c77297d20cccefc24d80a,611e07ecdcc96256ae8d5b80,611e6ded028505af9a0773a4,
,,,,,,,0,2,2,122,1,X,1, , ,8,,1500,1.5,Matt,001,2021-08-19_15h46.29,natb3,2021.2.3,MacIntel,66.66666667,611c77297d20cccefc24d80a,611e07ecdcc96256ae8d5b80,611e6ded028505af9a0773a4,
,,,,space,0.463,,0,3,3,211,1,X, , , , ,,2500,2.5,Matt,001,2021-08-19_15h46.29,natb3,2021.2.3,MacIntel,66.66666667,611c77297d20cccefc24d80a,611e07ecdcc96256ae8d5b80,611e6ded028505af9a0773a4,
,,,,space,0.52,,0,4,4,2,1,E, , , , ,space,2500,2.5,Matt,001,2021-08-19_15h46.29,natb3,2021.2.3,MacIntel,66.66666667,611c77297d20cccefc24d80a,611e07ecdcc96256ae8d5b80,611e6ded028505af9a0773a4,
,,,,,,,0,5,5,200,1,X,7, ,5,3,,1500,1.5,Matt,001,2021-08-19_15h46.29,natb3,2021.2.3,MacIntel,66.66666667,611c77297d20cccefc24d80a,611e07ecdcc96256ae8d5b80,611e6ded028505af9a0773a4,
,,,,,,,0,6,6,168,1,X, , , , ,,2500,2.5,Matt,001,2021-08-19_15h46.29,natb3,2021.2.3,MacIntel,66.66666667,611c77297d20cccefc24d80a,611e07ecdcc96256ae8d5b80,611e6ded028505af9a0773a4,
,,,,space,0.492,,0,7,7,331,1,Y, , , , ,space,2500,2.5,Matt,001,2021-08-19_15h46.29,natb3,2021.2.3,MacIntel,66.66666667,611c77297d20cccefc24d80a,611e07ecdcc96256ae8d5b80,611e6ded028505af9a0773a4,
,,,,space,0.433,,0,8,8,56,1,J, , , , ,space,1500,1.5,Matt,001,2021-08-19_15h46.29,natb3,2021.2.3,MacIntel,66.66666667,611c77297d20cccefc24d80a,611e07ecdcc96256ae8d5b80,611e6ded028505af9a0773a4,
,,,,space,0.39,,0,9,9,14,1,S, , , , ,space,2500,2.5,Matt,001,2021-08-19_15h46.29,natb3,2021.2.3,MacIntel,66.66666667,611c77297d20cccefc24d80a,611e07ecdcc96256ae8d5b80,611e6ded028505af9a0773a4,
,,,,space,0.505,,0,10,10,301,1,P, , , , ,space,1500,1.5,Matt,001,2021-08-19_15h46.29,natb3,2021.2.3,MacIntel,66.66666667,611c77297d20cccefc24d80a,611e07ecdcc96256ae8d5b80,611e6ded028505af9a0773a4,
,,,,space,0.44,,0,11,11,80,1,A, , , , ,space,2000,2,Matt,001,2021-08-19_15h46.29,natb3,2021.2.3,MacIntel,66.66666667,611c77297d20cccefc24d80a,611e07ecdcc96256ae8d5b80,611e6ded028505af9a0773a4,
,,,,space,0.501,,0,12,12,106,1,T, , , , ,space,1500,1.5,Matt,001,2021-08-19_15h46.29,natb3,2021.2.3,MacIntel,66.66666667,611c77297d20cccefc24d80a,611e07ecdcc96256ae8d5b80,611e6ded028505af9a0773a4,
,,,,space,0.462,,0,13,13,150,1,T, , , , ,space,2500,2.5,Matt,001,2021-08-19_15h46.29,natb3,2021.2.3,MacIntel,66.66666667,611c77297d20cccefc24d80a,611e07ecdcc96256ae8d5b80,611e6ded028505af9a0773a4,
,,,,space,0.392,,0,14,14,59,1,Z, , , , ,space,2000,2,Matt,001,2021-08-19_15h46.29,natb3,2021.2.3,MacIntel,66.66666667,611c77297d20cccefc24d80a,611e07ecdcc96256ae8d5b80,611e6ded028505af9a0773a4,
,,,,space,0.407,,0,15,15,131,1,G, , , , ,space,1500,1.5,Matt,001,2021-08-19_15h46.29,natb3,2021.2.3,MacIntel,66.66666667,611c77297d20cccefc24d80a,611e07ecdcc96256ae8d5b80,611e6ded028505af9a0773a4,
,,,,space,0.34,,0,16,16,256,1,Q, , , , ,space,2000,2,Matt,001,2021-08-19_15h46.29,natb3,2021.2.3,MacIntel,66.66666667,611c77297d20cccefc24d80a,611e07ecdcc96256ae8d5b80,611e6ded028505af9a0773a4,
,,,,space,0.376,,0,17,17,269,1,A, , , , ,space,2500,2.5,Matt,001,2021-08-19_15h46.29,natb3,2021.2.3,MacIntel,66.66666667,611c77297d20cccefc24d80a,611e07ecdcc96256ae8d5b80,611e6ded028505af9a0773a4,
,,,,space,0.319,,0,18,18,271,1,X, , , , ,,2500,2.5,Matt,001,2021-08-19_15h46.29,natb3,2021.2.3,MacIntel,66.66666667,611c77297d20cccefc24d80a,611e07ecdcc96256ae8d5b80,611e6ded028505af9a0773a4,
,,,,space,0.472,,0,19,19,246,1,L, , , , ,space,2500,2.5,Matt,001,2021-08-19_15h46.29,natb3,2021.2.3,MacIntel,66.66666667,611c77297d20cccefc24d80a,611e07ecdcc96256ae8d5b80,611e6ded028505af9a0773a4,
,,,,space,0.705,,0,20,20,45,1,O, , , , ,space,2000,2,Matt,001,2021-08-19_15h46.29,natb3,2021.2.3,MacIntel,66.66666667,611c77297d20cccefc24d80a,611e07ecdcc96256ae8d5b80,611e6ded028505af9a0773a4,
,,,,space,0.437,,0,21,21,169,1,L, , , , ,space,2500,2.5,Matt,001,2021-08-19_15h46.29,natb3,2021.2.3,MacIntel,66.66666667,611c77297d20cccefc24d80a,611e07ecdcc96256ae8d5b80,611e6ded028505af9a0773a4,
,,,,space,0.44,,0,22,22,121,1,I, , , , ,space,2000,2,Matt,001,2021-08-19_15h46.29,natb3,2021.2.3,MacIntel,66.66666667,611c77297d20cccefc24d80a,611e07ecdcc96256ae8d5b80,611e6ded028505af9a0773a4,
,,,,,,,0,23,23,315,1,X, , , , ,,2500,2.5,Matt,001,2021-08-19_15h46.29,natb3,2021.2.3,MacIntel,66.66666667,611c77297d20cccefc24d80a,611e07ecdcc96256ae8d5b80,611e6ded028505af9a0773a4,
,,,,space,0.48,,0,24,24,307,1,F, , , , ,space,2500,2.5,Matt,001,2021-08-19_15h46.29,natb3,2021.2.3,MacIntel,66.66666667,611c77297d20cccefc24d80a,611e07ecdcc96256ae8d5b80,611e6ded028505af9a0773a4,
,,,,space,0.471,,0,25,25,184,1,T, , , , ,space,2000,2,Matt,001,2021-08-19_15h46.29,natb3,2021.2.3,MacIntel,66.66666667,611c77297d20cccefc24d80a,611e07ecdcc96256ae8d5b80,611e6ded028505af9a0773a4,
,,,,space,0.368,,0,26,26,278,1,J, , , , ,space,2000,2,Matt,001,2021-08-19_15h46.29,natb3,2021.2.3,MacIntel,66.66666667,611c77297d20cccefc24d80a,611e07ecdcc96256ae8d5b80,611e6ded028505af9a0773a4,
,,,,space,0.405,,0,27,27,144,1,Q, , , , ,space,2500,2.5,Matt,001,2021-08-19_15h46.29,natb3,2021.2.3,MacIntel,66.66666667,611c77297d20cccefc24d80a,611e07ecdcc96256ae8d5b80,611e6ded028505af9a0773a4,
,,,,space,0.447,,0,28,28,254,1,M, , , , ,space,1500,1.5,Matt,001,2021-08-19_15h46.29,natb3,2021.2.3,MacIntel,66.66666667,611c77297d20cccefc24d80a,611e07ecdcc96256ae8d5b80,611e6ded028505af9a0773a4,
,,,,space,0.381,,0,29,29,296,1,Y, , , , ,space,2500,2.5,Matt,001,2021-08-19_15h46.29,natb3,2021.2.3,MacIntel,66.66666667,611c77297d20cccefc24d80a,611e07ecdcc96256ae8d5b80,611e6ded028505af9a0773a4,
,,,,space,0.347,,0,30,30,11,1,P, , , , ,space,2500,2.5,Matt,001,2021-08-19_15h46.29,natb3,2021.2.3,MacIntel,66.66666667,611c77297d20cccefc24d80a,611e07ecdcc96256ae8d5b80,611e6ded028505af9a0773a4,
,,,,space,0.414,,0,31,31,92,1,Z, , , , ,space,1500,1.5,Matt,001,2021-08-19_15h46.29,natb3,2021.2.3,MacIntel,66.66666667,611c77297d20cccefc24d80a,611e07ecdcc96256ae8d5b80,611e6ded028505af9a0773a4,
,,,,space,0.441,,0,32,32,172,1,C, , , , ,space,1500,1.5,Matt,001,2021-08-19_15h46.29,natb3,2021.2.3,MacIntel,66.66666667,611c77297d20cccefc24d80a,611e07ecdcc96256ae8d5b80,611e6ded028505af9a0773a4,
,,,,,,,0,33,33,313,1,X, , , , ,,2500,2.5,Matt,001,2021-08-19_15h46.29,natb3,2021.2.3,MacIntel,66.66666667,611c77297d20cccefc24d80a,611e07ecdcc96256ae8d5b80,611e6ded028505af9a0773a4,
,,,,,,,0,34,34,15,1,X, , , , ,,1500,1.5,Matt,001,2021-08-19_15h46.29,natb3,2021.2.3,MacIntel,66.66666667,611c77297d20cccefc24d80a,611e07ecdcc96256ae8d5b80,611e6ded028505af9a0773a4,
,,,,space,0.416,,0,35,35,164,1,H, , , , ,space,2500,2.5,Matt,001,2021-08-19_15h46.29,natb3,2021.2.3,MacIntel,66.66666667,611c77297d20cccefc24d80a,611e07ecdcc96256ae8d5b80,611e6ded028505af9a0773a4,
,,,,space,0.407,,0,36,36,298,1,I, , , , ,space,2000,2,Matt,001,2021-08-19_15h46.29,natb3,2021.2.3,MacIntel,66.66666667,611c77297d20cccefc24d80a,611e07ecdcc96256ae8d5b80,611e6ded028505af9a0773a4,
,,,,space,0.407,,0,37,37,61,1,C, , , , ,space,2000,2,Matt,001,2021-08-19_15h46.29,natb3,2021.2.3,MacIntel,66.66666667,611c77297d20cccefc24d80a,611e07ecdcc96256ae8d5b80,611e6ded028505af9a0773a4,
,,,,space,0.46,,0,38,38,58,1,L, , , , ,space,2000,2,Matt,001,2021-08-19_15h46.29,natb3,2021.2.3,MacIntel,66.66666667,611c77297d20cccefc24d80a,611e07ecdcc96256ae8d5b80,611e6ded028505af9a0773a4,
,,,,,,,0,39,39,35,1,X, , , , ,,2500,2.5,Matt,001,2021-08-19_15h46.29,natb3,2021.2.3,MacIntel,66.66666667,611c77297d20cccefc24d80a,611e07ecdcc96256ae8d5b80,611e6ded028505af9a0773a4,
,,,,space,0.447,,0,40,40,250,1,V, , , , ,space,2000,2,Matt,001,2021-08-19_15h46.29,natb3,2021.2.3,MacIntel,66.66666667,611c77297d20cccefc24d80a,611e07ecdcc96256ae8d5b80,611e6ded028505af9a0773a4,
,,,,,,,0,41,41,287,1,X, ,2, ,9,,2000,2,Matt,001,2021-08-19_15h46.29,natb3,2021.2.3,MacIntel,66.66666667,611c77297d20cccefc24d80a,611e07ecdcc96256ae8d5b80,611e6ded028505af9a0773a4,
,,,,space,0.497,,0,42,42,8,1,U, , , , ,space,1500,1.5,Matt,001,2021-08-19_15h46.29,natb3,2021.2.3,MacIntel,66.66666667,611c77297d20cccefc24d80a,611e07ecdcc96256ae8d5b80,611e6ded028505af9a0773a4,
,,,,space,0.379,,0,43,43,235,1,A, , , , ,space,1500,1.5,Matt,001,2021-08-19_15h46.29,natb3,2021.2.3,MacIntel,66.66666667,611c77297d20cccefc24d80a,611e07ecdcc96256ae8d5b80,611e6ded028505af9a0773a4,
,,,,,,,0,44,44,252,1,X,3, ,6,9,,2000,2,Matt,001,2021-08-19_15h46.29,natb3,2021.2.3,MacIntel,66.66666667,611c77297d20cccefc24d80a,611e07ecdcc96256ae8d5b80,611e6ded028505af9a0773a4,
,,,,space,0.441,,0,45,45,70,1,E, , , , ,space,2500,2.5,Matt,001,2021-08-19_15h46.29,natb3,2021.2.3,MacIntel,66.66666667,611c77297d20cccefc24d80a,611e07ecdcc96256ae8d5b80,611e6ded028505af9a0773a4,
,,,,space,0.39,,0,46,46,330,1,T, , , , ,space,2500,2.5,Matt,001,2021-08-19_15h46.29,natb3,2021.2.3,MacIntel,66.66666667,611c77297d20cccefc24d80a,611e07ecdcc96256ae8d5b80,611e6ded028505af9a0773a4,
,,,,space,0.434,,0,47,47,72,1,T, , , , ,space,1500,1.5,Matt,001,2021-08-19_15h46.29,natb3,2021.2.3,MacIntel,66.66666667,611c77297d20cccefc24d80a,611e07ecdcc96256ae8d5b80,611e6ded028505af9a0773a4,
,,,,space,0.462,,0,48,48,212,1,Q, , , , ,space,2500,2.5,Matt,001,2021-08-19_15h46.29,natb3,2021.2.3,MacIntel,66.66666667,611c77297d20cccefc24d80a,611e07ecdcc96256ae8d5b80,611e6ded028505af9a0773a4,
,,,,space,0.439,,0,49,49,99,1,N, , , , ,space,2500,2.5,Matt,001,2021-08-19_15h46.29,natb3,2021.2.3,MacIntel,66.66666667,611c77297d20cccefc24d80a,611e07ecdcc96256ae8d5b80,611e6ded028505af9a0773a4,
,,,,,,,0,50,50,82,1,X,4,6,1,7,,2000,2,Matt,001,2021-08-19_15h46.29,natb3,2021.2.3,MacIntel,66.66666667,611c77297d20cccefc24d80a,611e07ecdcc96256ae8d5b80,611e6ded028505af9a0773a4,
,,,,,,,0,51,51,54,1,X, , , , ,,2000,2,Matt,001,2021-08-19_15h46.29,natb3,2021.2.3,MacIntel,66.66666667,611c77297d20cccefc24d80a,611e07ecdcc96256ae8d5b80,611e6ded028505af9a0773a4,
,,,,space,0.382,,0,52,52,280,1,L, , , , ,space,1500,1.5,Matt,001,2021-08-19_15h46.29,natb3,2021.2.3,MacIntel,66.66666667,611c77297d20cccefc24d80a,611e07ecdcc96256ae8d5b80,611e6ded028505af9a0773a4,
,,,,space,0.384,,0,53,53,285,1,B, , , , ,space,1500,1.5,Matt,001,2021-08-19_15h46.29,natb3,2021.2.3,MacIntel,66.66666667,611c77297d20cccefc24d80a,611e07ecdcc96256ae8d5b80,611e6ded028505af9a0773a4,
,,,,space,0.406,,0,54,54,292,1,E, , , , ,space,2000,2,Matt,001,2021-08-19_15h46.29,natb3,2021.2.3,MacIntel,66.66666667,611c77297d20cccefc24d80a,611e07ecdcc96256ae8d5b80,611e6ded028505af9a0773a4,
,,,,space,0.417,,0,55,55,244,1,J, , , , ,space,1500,1.5,Matt,001,2021-08-19_15h46.29,natb3,2021.2.3,MacIntel,66.66666667,611c77297d20cccefc24d80a,611e07ecdcc96256ae8d5b80,611e6ded028505af9a0773a4,
,,,,,,,0,56,56,295,1,X,8,7,5, ,,2500,2.5,Matt,001,2021-08-19_15h46.29,natb3,2021.2.3,MacIntel,66.66666667,611c77297d20cccefc24d80a,611e07ecdcc96256ae8d5b80,611e6ded028505af9a0773a4,
,,,,space,0.408,,0,57,57,157,1,A, , , , ,space,2500,2.5,Matt,001,2021-08-19_15h46.29,natb3,2021.2.3,MacIntel,66.66666667,611c77297d20cccefc24d80a,611e07ecdcc96256ae8d5b80,611e6ded028505af9a0773a4,
,,,,space,0.413,,0,58,58,5,1,T, , , , ,space,2000,2,Matt,001,2021-08-19_15h46.29,natb3,2021.2.3,MacIntel,66.66666667,611c77297d20cccefc24d80a,611e07ecdcc96256ae8d5b80,611e6ded028505af9a0773a4,
,,,,,,,0,59,59,302,1,X, , , , ,,2000,2,Matt,001,2021-08-19_15h46.29,natb3,2021.2.3,MacIntel,66.66666667,611c77297d20cccefc24d80a,611e07ecdcc96256ae8d5b80,611e6ded028505af9a0773a4,
,,,,space,0.398,,0,60,60,185,1,Y, , , , ,space,2500,2.5,Matt,001,2021-08-19_15h46.29,natb3,2021.2.3,MacIntel,66.66666667,611c77297d20cccefc24d80a,611e07ecdcc96256ae8d5b80,611e6ded028505af9a0773a4,
,,,,space,0.557,,0,61,61,224,1,W, , , , ,space,1500,1.5,Matt,001,2021-08-19_15h46.29,natb3,2021.2.3,MacIntel,66.66666667,611c77297d20cccefc24d80a,611e07ecdcc96256ae8d5b80,611e6ded028505af9a0773a4,
,,,,space,0.453,,0,62,62,0,1,Q, , , , ,space,1500,1.5,Matt,001,2021-08-19_15h46.29,natb3,2021.2.3,MacIntel,66.66666667,611c77297d20cccefc24d80a,611e07ecdcc96256ae8d5b80,611e6ded028505af9a0773a4,
,,,,space,0.381,,0,63,63,327,1,E, , , , ,space,1500,1.5,Matt,001,2021-08-19_15h46.29,natb3,2021.2.3,MacIntel,66.66666667,611c77297d20cccefc24d80a,611e07ecdcc96256ae8d5b80,611e6ded028505af9a0773a4,
,,,,space,0.38,,0,64,64,90,1,K, , , , ,space,2000,2,Matt,001,2021-08-19_15h46.29,natb3,2021.2.3,MacIntel,66.66666667,611c77297d20cccefc24d80a,611e07ecdcc96256ae8d5b80,611e6ded028505af9a0773a4,
,,,,space,0.34,,0,65,65,30,1,N, , , , ,space,2500,2.5,Matt,001,2021-08-19_15h46.29,natb3,2021.2.3,MacIntel,66.66666667,611c77297d20cccefc24d80a,611e07ecdcc96256ae8d5b80,611e6ded028505af9a0773a4,
,,,,,,,0,66,66,23,1,X,1, ,5, ,,2000,2,Matt,001,2021-08-19_15h46.29,natb3,2021.2.3,MacIntel,66.66666667,611c77297d20cccefc24d80a,611e07ecdcc96256ae8d5b80,611e6ded028505af9a0773a4,
,,,,space,0.378,,0,67,67,53,1,G, , , , ,space,2500,2.5,Matt,001,2021-08-19_15h46.29,natb3,2021.2.3,MacIntel,66.66666667,611c77297d20cccefc24d80a,611e07ecdcc96256ae8d5b80,611e6ded028505af9a0773a4,
,,,,,,,0,68,68,255,1,X, , , , ,,1500,1.5,Matt,001,2021-08-19_15h46.29,natb3,2021.2.3,MacIntel,66.66666667,611c77297d20cccefc24d80a,611e07ecdcc96256ae8d5b80,611e6ded028505af9a0773a4,
,,,,space,0.374,,0,69,69,209,1,N, , , , ,space,2000,2,Matt,001,2021-08-19_15h46.29,natb3,2021.2.3,MacIntel,66.66666667,611c77297d20cccefc24d80a,611e07ecdcc96256ae8d5b80,611e6ded028505af9a0773a4,
,,,,,,,0,70,70,96,1,X, , , , ,,1500,1.5,Matt,001,2021-08-19_15h46.29,natb3,2021.2.3,MacIntel,66.66666667,611c77297d20cccefc24d80a,611e07ecdcc96256ae8d5b80,611e6ded028505af9a0773a4,
,,,,,,,0,71,71,66,1,X, ,4,7, ,,2000,2,Matt,001,2021-08-19_15h46.29,natb3,2021.2.3,MacIntel,66.66666667,611c77297d20cccefc24d80a,611e07ecdcc96256ae8d5b80,611e6ded028505af9a0773a4,
,,,,space,0.422,,0,72,72,272,1,D, , , , ,space,2000,2,Matt,001,2021-08-19_15h46.29,natb3,2021.2.3,MacIntel,66.66666667,611c77297d20cccefc24d80a,611e07ecdcc96256ae8d5b80,611e6ded028505af9a0773a4,
,,,,space,0.38,,0,73,73,312,1,K, , , , ,space,2000,2,Matt,001,2021-08-19_15h46.29,natb3,2021.2.3,MacIntel,66.66666667,611c77297d20cccefc24d80a,611e07ecdcc96256ae8d5b80,611e6ded028505af9a0773a4,
,,,,space,0.375,,0,74,74,261,1,T, , , , ,space,2000,2,Matt,001,2021-08-19_15h46.29,natb3,2021.2.3,MacIntel,66.66666667,611c77297d20cccefc24d80a,611e07ecdcc96256ae8d5b80,611e6ded028505af9a0773a4,
,,,,,,,0,75,75,148,1,X, , , , ,,2000,2,Matt,001,2021-08-19_15h46.29,natb3,2021.2.3,MacIntel,66.66666667,611c77297d20cccefc24d80a,611e07ecdcc96256ae8d5b80,611e6ded028505af9a0773a4,
,,,,space,0.38,,0,76,76,147,1,E, , , , ,space,2000,2,Matt,001,2021-08-19_15h46.29,natb3,2021.2.3,MacIntel,66.66666667,611c77297d20cccefc24d80a,611e07ecdcc96256ae8d5b80,611e6ded028505af9a0773a4,
,,,,space,0.474,,0,77,77,201,1,K, , , , ,space,1500,1.5,Matt,001,2021-08-19_15h46.29,natb3,2021.2.3,MacIntel,66.66666667,611c77297d20cccefc24d80a,611e07ecdcc96256ae8d5b80,611e6ded028505af9a0773a4,
,,,,,,,0,78,78,233,1,X, ,2, ,5,,1500,1.5,Matt,001,2021-08-19_15h46.29,natb3,2021.2.3,MacIntel,66.66666667,611c77297d20cccefc24d80a,611e07ecdcc96256ae8d5b80,611e6ded028505af9a0773a4,
,,,,,,,0,79,79,116,1,X, , , , ,,2000,2,Matt,001,2021-08-19_15h46.29,natb3,2021.2.3,MacIntel,66.66666667,611c77297d20cccefc24d80a,611e07ecdcc96256ae8d5b80,611e6ded028505af9a0773a4,
,,,,space,0.409,,0,80,80,10,1,O, , , , ,space,2000,2,Matt,001,2021-08-19_15h46.29,natb3,2021.2.3,MacIntel,66.66666667,611c77297d20cccefc24d80a,611e07ecdcc96256ae8d5b80,611e6ded028505af9a0773a4,
,,,,,,,0,81,81,129,1,X,2,3,5, ,,1500,1.5,Matt,001,2021-08-19_15h46.29,natb3,2021.2.3,MacIntel,66.66666667,611c77297d20cccefc24d80a,611e07ecdcc96256ae8d5b80,611e6ded028505af9a0773a4,
,,,,,,,0,82,82,187,1,X, ,3,7,4,,1500,1.5,Matt,001,2021-08-19_15h46.29,natb3,2021.2.3,MacIntel,66.66666667,611c77297d20cccefc24d80a,611e07ecdcc96256ae8d5b80,611e6ded028505af9a0773a4,
,,,,space,0.428,,0,83,83,152,1,U, , , , ,space,2000,2,Matt,001,2021-08-19_15h46.29,natb3,2021.2.3,MacIntel,66.66666667,611c77297d20cccefc24d80a,611e07ecdcc96256ae8d5b80,611e6ded028505af9a0773a4,
,,,,space,0.485,,0,84,84,26,1,C, , , , ,space,2000,2,Matt,001,2021-08-19_15h46.29,natb3,2021.2.3,MacIntel,66.66666667,611c77297d20cccefc24d80a,611e07ecdcc96256ae8d5b80,611e6ded028505af9a0773a4,
,,,,space,0.357,,0,85,85,234,1,P, , , , ,space,2000,2,Matt,001,2021-08-19_15h46.29,natb3,2021.2.3,MacIntel,66.66666667,611c77297d20cccefc24d80a,611e07ecdcc96256ae8d5b80,611e6ded028505af9a0773a4,
,,,,,,,0,86,86,243,1,X, , , , ,,2500,2.5,Matt,001,2021-08-19_15h46.29,natb3,2021.2.3,MacIntel,66.66666667,611c77297d20cccefc24d80a,611e07ecdcc96256ae8d5b80,611e6ded028505af9a0773a4,
,,,,space,0.409,,0,87,87,247,1,Z, , , , ,space,1500,1.5,Matt,001,2021-08-19_15h46.29,natb3,2021.2.3,MacIntel,66.66666667,611c77297d20cccefc24d80a,611e07ecdcc96256ae8d5b80,611e6ded028505af9a0773a4,
,,,,space,0.398,,0,88,88,178,1,Q, , , , ,space,1500,1.5,Matt,001,2021-08-19_15h46.29,natb3,2021.2.3,MacIntel,66.66666667,611c77297d20cccefc24d80a,611e07ecdcc96256ae8d5b80,611e6ded028505af9a0773a4,
,,,,,,,0,89,89,179,1,X, ,9, ,2,,1500,1.5,Matt,001,2021-08-19_15h46.29,natb3,2021.2.3,MacIntel,66.66666667,611c77297d20cccefc24d80a,611e07ecdcc96256ae8d5b80,611e6ded028505af9a0773a4,
,,,,space,0.413,,0,90,90,173,1,V, , , , ,space,1500,1.5,Matt,001,2021-08-19_15h46.29,natb3,2021.2.3,MacIntel,66.66666667,611c77297d20cccefc24d80a,611e07ecdcc96256ae8d5b80,611e6ded028505af9a0773a4,
,,,,space,0.464,,0,91,91,29,1,B, , , , ,space,1500,1.5,Matt,001,2021-08-19_15h46.29,natb3,2021.2.3,MacIntel,66.66666667,611c77297d20cccefc24d80a,611e07ecdcc96256ae8d5b80,611e6ded028505af9a0773a4,
,,,,space,0.346,,0,92,92,137,1,C, , , , ,space,2500,2.5,Matt,001,2021-08-19_15h46.29,natb3,2021.2.3,MacIntel,66.66666667,611c77297d20cccefc24d80a,611e07ecdcc96256ae8d5b80,611e6ded028505af9a0773a4,
,,,,space,0.395,,0,93,93,206,1,V, , , , ,space,2000,2,Matt,001,2021-08-19_15h46.29,natb3,2021.2.3,MacIntel,66.66666667,611c77297d20cccefc24d80a,611e07ecdcc96256ae8d5b80,611e6ded028505af9a0773a4,
,,,,,,,0,94,94,259,1,X,8, , ,3,,2500,2.5,Matt,001,2021-08-19_15h46.29,natb3,2021.2.3,MacIntel,66.66666667,611c77297d20cccefc24d80a,611e07ecdcc96256ae8d5b80,611e6ded028505af9a0773a4,
,,,,space,0.423,,0,95,95,142,1,N, , , , ,space,2500,2.5,Matt,001,2021-08-19_15h46.29,natb3,2021.2.3,MacIntel,66.66666667,611c77297d20cccefc24d80a,611e07ecdcc96256ae8d5b80,611e6ded028505af9a0773a4,
,,,,space,0.424,,0,96,96,279,1,K, , , , ,space,2500,2.5,Matt,001,2021-08-19_15h46.29,natb3,2021.2.3,MacIntel,66.66666667,611c77297d20cccefc24d80a,611e07ecdcc96256ae8d5b80,611e6ded028505af9a0773a4,
,,,,,,,0,97,97,51,1,X,7,5,8, ,,1500,1.5,Matt,001,2021-08-19_15h46.29,natb3,2021.2.3,MacIntel,66.66666667,611c77297d20cccefc24d80a,611e07ecdcc96256ae8d5b80,611e6ded028505af9a0773a4,
,,,,,,,0,98,98,166,1,X, , , , ,,2000,2,Matt,001,2021-08-19_15h46.29,natb3,2021.2.3,MacIntel,66.66666667,611c77297d20cccefc24d80a,611e07ecdcc96256ae8d5b80,611e6ded028505af9a0773a4,
,,,,,,,0,99,99,305,1,X, , , , ,,1500,1.5,Matt,001,2021-08-19_15h46.29,natb3,2021.2.3,MacIntel,66.66666667,611c77297d20cccefc24d80a,611e07ecdcc96256ae8d5b80,611e6ded028505af9a0773a4,
,,,,space,0.463,,0,100,100,326,1,W, , , , ,space,2000,2,Matt,001,2021-08-19_15h46.29,natb3,2021.2.3,MacIntel,66.66666667,611c77297d20cccefc24d80a,611e07ecdcc96256ae8d5b80,611e6ded028505af9a0773a4,
,,,,space,0.357,,0,101,101,197,1,G, , , , ,space,2500,2.5,Matt,001,2021-08-19_15h46.29,natb3,2021.2.3,MacIntel,66.66666667,611c77297d20cccefc24d80a,611e07ecdcc96256ae8d5b80,611e6ded028505af9a0773a4,
,,,,space,0.44,,0,102,102,222,1,O, , , , ,space,2000,2,Matt,001,2021-08-19_15h46.29,natb3,2021.2.3,MacIntel,66.66666667,611c77297d20cccefc24d80a,611e07ecdcc96256ae8d5b80,611e6ded028505af9a0773a4,
,,,,,,,0,103,103,229,1,X,8, ,2,6,,2500,2.5,Matt,001,2021-08-19_15h46.29,natb3,2021.2.3,MacIntel,66.66666667,611c77297d20cccefc24d80a,611e07ecdcc96256ae8d5b80,611e6ded028505af9a0773a4,
,,,,space,0.527,,0,104,104,221,1,I, , , , ,space,2500,2.5,Matt,001,2021-08-19_15h46.29,natb3,2021.2.3,MacIntel,66.66666667,611c77297d20cccefc24d80a,611e07ecdcc96256ae8d5b80,611e6ded028505af9a0773a4,
,,,,space,0.424,,0,105,105,284,1,V, , , , ,space,2500,2.5,Matt,001,2021-08-19_15h46.29,natb3,2021.2.3,MacIntel,66.66666667,611c77297d20cccefc24d80a,611e07ecdcc96256ae8d5b80,611e6ded028505af9a0773a4,
,,,,,,,0,106,106,322,1,X, , ,1,6,,2000,2,Matt,001,2021-08-19_15h46.29,natb3,2021.2.3,MacIntel,66.66666667,611c77297d20cccefc24d80a,611e07ecdcc96256ae8d5b80,611e6ded028505af9a0773a4,
,,,,,,,0,107,107,7,1,X, , , , ,,1500,1.5,Matt,001,2021-08-19_15h46.29,natb3,2021.2.3,MacIntel,66.66666667,611c77297d20cccefc24d80a,611e07ecdcc96256ae8d5b80,611e6ded028505af9a0773a4,
,,,,,,,0,108,108,39,1,X,6,2, , ,,1500,1.5,Matt,001,2021-08-19_15h46.29,natb3,2021.2.3,MacIntel,66.66666667,611c77297d20cccefc24d80a,611e07ecdcc96256ae8d5b80,611e6ded028505af9a0773a4,
,,,,space,0.449,,0,109,109,249,1,C, , , , ,space,2000,2,Matt,001,2021-08-19_15h46.29,natb3,2021.2.3,MacIntel,66.66666667,611c77297d20cccefc24d80a,611e07ecdcc96256ae8d5b80,611e6ded028505af9a0773a4,
,,,,space,0.382,,0,110,110,57,1,K, , , , ,space,2500,2.5,Matt,001,2021-08-19_15h46.29,natb3,2021.2.3,MacIntel,66.66666667,611c77297d20cccefc24d80a,611e07ecdcc96256ae8d5b80,611e6ded028505af9a0773a4,
,,,,space,0.492,,0,111,111,50,1,D, , , , ,space,1500,1.5,Matt,001,2021-08-19_15h46.29,natb3,2021.2.3,MacIntel,66.66666667,611c77297d20cccefc24d80a,611e07ecdcc96256ae8d5b80,611e6ded028505af9a0773a4,
,,,,,,,0,112,112,329,1,X,3,4, ,2,,2500,2.5,Matt,001,2021-08-19_15h46.29,natb3,2021.2.3,MacIntel,66.66666667,611c77297d20cccefc24d80a,611e07ecdcc96256ae8d5b80,611e6ded028505af9a0773a4,
,,,,space,0.387,,0,113,113,253,1,N, , , , ,space,2500,2.5,Matt,001,2021-08-19_15h46.29,natb3,2021.2.3,MacIntel,66.66666667,611c77297d20cccefc24d80a,611e07ecdcc96256ae8d5b80,611e6ded028505af9a0773a4,
,,,,space,0.407,,0,114,114,333,1,I, , , , ,space,1500,1.5,Matt,001,2021-08-19_15h46.29,natb3,2021.2.3,MacIntel,66.66666667,611c77297d20cccefc24d80a,611e07ecdcc96256ae8d5b80,611e6ded028505af9a0773a4,
,,,,space,0.385,,0,115,115,328,1,R, , , , ,space,1500,1.5,Matt,001,2021-08-19_15h46.29,natb3,2021.2.3,MacIntel,66.66666667,611c77297d20cccefc24d80a,611e07ecdcc96256ae8d5b80,611e6ded028505af9a0773a4,
,,,,space,0.575,,0,116,116,225,1,E, , , , ,space,2000,2,Matt,001,2021-08-19_15h46.29,natb3,2021.2.3,MacIntel,66.66666667,611c77297d20cccefc24d80a,611e07ecdcc96256ae8d5b80,611e6ded028505af9a0773a4,
,,,,space,0.358,,0,117,117,38,1,R, , , , ,space,2500,2.5,Matt,001,2021-08-19_15h46.29,natb3,2021.2.3,MacIntel,66.66666667,611c77297d20cccefc24d80a,611e07ecdcc96256ae8d5b80,611e6ded028505af9a0773a4,
,,,,space,0.405,,0,118,118,238,1,D, , , , ,space,1500,1.5,Matt,001,2021-08-19_15h46.29,natb3,2021.2.3,MacIntel,66.66666667,611c77297d20cccefc24d80a,611e07ecdcc96256ae8d5b80,611e6ded028505af9a0773a4,
,,,,space,0.395,,0,119,119,170,1,Z, , , , ,space,2000,2,Matt,001,2021-08-19_15h46.29,natb3,2021.2.3,MacIntel,66.66666667,611c77297d20cccefc24d80a,611e07ecdcc96256ae8d5b80,611e6ded028505af9a0773a4,
,,,,,,,0,120,120,74,1,X, ,4,3,2,,1500,1.5,Matt,001,2021-08-19_15h46.29,natb3,2021.2.3,MacIntel,66.66666667,611c77297d20cccefc24d80a,611e07ecdcc96256ae8d5b80,611e6ded028505af9a0773a4,
,,,,space,0.421,,0,121,121,151,1,Y, , , , ,space,2500,2.5,Matt,001,2021-08-19_15h46.29,natb3,2021.2.3,MacIntel,66.66666667,611c77297d20cccefc24d80a,611e07ecdcc96256ae8d5b80,611e6ded028505af9a0773a4,
,,,,space,0.352,,0,122,122,232,1,O, , , , ,space,2500,2.5,Matt,001,2021-08-19_15h46.29,natb3,2021.2.3,MacIntel,66.66666667,611c77297d20cccefc24d80a,611e07ecdcc96256ae8d5b80,611e6ded028505af9a0773a4,
,,,,space,0.364,,0,123,123,76,1,I, , , , ,space,2000,2,Matt,001,2021-08-19_15h46.29,natb3,2021.2.3,MacIntel,66.66666667,611c77297d20cccefc24d80a,611e07ecdcc96256ae8d5b80,611e6ded028505af9a0773a4,
,,,,space,0.344,,0,124,124,34,1,Q, , , , ,space,2500,2.5,Matt,001,2021-08-19_15h46.29,natb3,2021.2.3,MacIntel,66.66666667,611c77297d20cccefc24d80a,611e07ecdcc96256ae8d5b80,611e6ded028505af9a0773a4,
,,,,space,0.846,,0,125,125,110,1,I, , , , ,space,1500,1.5,Matt,001,2021-08-19_15h46.29,natb3,2021.2.3,MacIntel,66.66666667,611c77297d20cccefc24d80a,611e07ecdcc96256ae8d5b80,611e6ded028505af9a0773a4,
,,,,space,0.904,,0,126,126,335,1,P,,,,,space,1500,1.5,Matt,001,2021-08-19_15h46.29,natb3,2021.2.3,MacIntel,66.66666667,611c77297d20cccefc24d80a,611e07ecdcc96256ae8d5b80,611e6ded028505af9a0773a4,
,,,,space,0.418,,0,127,127,79,1,P, , , , ,space,2000,2,Matt,001,2021-08-19_15h46.29,natb3,2021.2.3,MacIntel,66.66666667,611c77297d20cccefc24d80a,611e07ecdcc96256ae8d5b80,611e6ded028505af9a0773a4,
,,,,space,0.357,,0,128,128,17,1,F, , , , ,space,2500,2.5,Matt,001,2021-08-19_15h46.29,natb3,2021.2.3,MacIntel,66.66666667,611c77297d20cccefc24d80a,611e07ecdcc96256ae8d5b80,611e6ded028505af9a0773a4,
,,,,space,0.32,,0,129,129,83,1,D, , , , ,space,2000,2,Matt,001,2021-08-19_15h46.29,natb3,2021.2.3,MacIntel,66.66666667,611c77297d20cccefc24d80a,611e07ecdcc96256ae8d5b80,611e6ded028505af9a0773a4,
,,,,space,0.382,,0,130,130,139,1,V, , , , ,space,2000,2,Matt,001,2021-08-19_15h46.29,natb3,2021.2.3,MacIntel,66.66666667,611c77297d20cccefc24d80a,611e07ecdcc96256ae8d5b80,611e6ded028505af9a0773a4,
,,,,space,0.331,,0,131,131,240,1,F, , , , ,space,2500,2.5,Matt,001,2021-08-19_15h46.29,natb3,2021.2.3,MacIntel,66.66666667,611c77297d20cccefc24d80a,611e07ecdcc96256ae8d5b80,611e6ded028505af9a0773a4,
,,,,,,,0,132,132,118,1,X, , , , ,,2000,2,Matt,001,2021-08-19_15h46.29,natb3,2021.2.3,MacIntel,66.66666667,611c77297d20cccefc24d80a,611e07ecdcc96256ae8d5b80,611e6ded028505af9a0773a4,
,,,,space,0.349,,0,133,133,112,1,Q, , , , ,space,2500,2.5,Matt,001,2021-08-19_15h46.29,natb3,2021.2.3,MacIntel,66.66666667,611c77297d20cccefc24d80a,611e07ecdcc96256ae8d5b80,611e6ded028505af9a0773a4,
,,,,space,0.347,,0,134,134,204,1,Z, , , , ,space,2000,2,Matt,001,2021-08-19_15h46.29,natb3,2021.2.3,MacIntel,66.66666667,611c77297d20cccefc24d80a,611e07ecdcc96256ae8d5b80,611e6ded028505af9a0773a4,
,,,,space,0.39,,0,135,135,161,1,F, , , , ,space,1500,1.5,Matt,001,2021-08-19_15h46.29,natb3,2021.2.3,MacIntel,66.66666667,611c77297d20cccefc24d80a,611e07ecdcc96256ae8d5b80,611e6ded028505af9a0773a4,
,,,,space,0.357,,0,136,136,140,1,B, , , , ,space,2500,2.5,Matt,001,2021-08-19_15h46.29,natb3,2021.2.3,MacIntel,66.66666667,611c77297d20cccefc24d80a,611e07ecdcc96256ae8d5b80,611e6ded028505af9a0773a4,
,,,,space,0.331,,0,137,137,293,1,R, , , , ,space,2500,2.5,Matt,001,2021-08-19_15h46.29,natb3,2021.2.3,MacIntel,66.66666667,611c77297d20cccefc24d80a,611e07ecdcc96256ae8d5b80,611e6ded028505af9a0773a4,
,,,,,,,0,138,138,248,1,X, ,1,5, ,,1500,1.5,Matt,001,2021-08-19_15h46.29,natb3,2021.2.3,MacIntel,66.66666667,611c77297d20cccefc24d80a,611e07ecdcc96256ae8d5b80,611e6ded028505af9a0773a4,
,,,,space,0.397,,0,139,139,16,1,D, , , , ,space,1500,1.5,Matt,001,2021-08-19_15h46.29,natb3,2021.2.3,MacIntel,66.66666667,611c77297d20cccefc24d80a,611e07ecdcc96256ae8d5b80,611e6ded028505af9a0773a4,
,,,,space,0.376,,0,140,140,283,1,C, , , , ,space,1500,1.5,Matt,001,2021-08-19_15h46.29,natb3,2021.2.3,MacIntel,66.66666667,611c77297d20cccefc24d80a,611e07ecdcc96256ae8d5b80,611e6ded028505af9a0773a4,
,,,,,,,0,141,141,203,1,X, , , , ,,2500,2.5,Matt,001,2021-08-19_15h46.29,natb3,2021.2.3,MacIntel,66.66666667,611c77297d20cccefc24d80a,611e07ecdcc96256ae8d5b80,611e6ded028505af9a0773a4,
,,,,space,0.372,,0,142,142,165,1,J, , , , ,space,2500,2.5,Matt,001,2021-08-19_15h46.29,natb3,2021.2.3,MacIntel,66.66666667,611c77297d20cccefc24d80a,611e07ecdcc96256ae8d5b80,611e6ded028505af9a0773a4,
,,,,space,0.414,,0,143,143,52,1,F, , , , ,space,1500,1.5,Matt,001,2021-08-19_15h46.29,natb3,2021.2.3,MacIntel,66.66666667,611c77297d20cccefc24d80a,611e07ecdcc96256ae8d5b80,611e6ded028505af9a0773a4,
,,,,space,0.601,,0,144,144,113,1,W, , , , ,space,2500,2.5,Matt,001,2021-08-19_15h46.29,natb3,2021.2.3,MacIntel,66.66666667,611c77297d20cccefc24d80a,611e07ecdcc96256ae8d5b80,611e6ded028505af9a0773a4,
,,,,space,0.373,,0,145,145,231,1,I, , , , ,space,2500,2.5,Matt,001,2021-08-19_15h46.29,natb3,2021.2.3,MacIntel,66.66666667,611c77297d20cccefc24d80a,611e07ecdcc96256ae8d5b80,611e6ded028505af9a0773a4,
,,,,space,0.35,,0,146,146,25,1,Z, , , , ,space,2500,2.5,Matt,001,2021-08-19_15h46.29,natb3,2021.2.3,MacIntel,66.66666667,611c77297d20cccefc24d80a,611e07ecdcc96256ae8d5b80,611e6ded028505af9a0773a4,
,,,,space,0.339,,0,147,147,41,1,Y, , , , ,space,2500,2.5,Matt,001,2021-08-19_15h46.29,natb3,2021.2.3,MacIntel,66.66666667,611c77297d20cccefc24d80a,611e07ecdcc96256ae8d5b80,611e6ded028505af9a0773a4,
,,,,space,0.422,,0,148,148,102,1,X, ,6, , ,,1500,1.5,Matt,001,2021-08-19_15h46.29,natb3,2021.2.3,MacIntel,66.66666667,611c77297d20cccefc24d80a,611e07ecdcc96256ae8d5b80,611e6ded028505af9a0773a4,
,,,,space,0.352,,0,149,149,135,1,K, , , , ,space,1500,1.5,Matt,001,2021-08-19_15h46.29,natb3,2021.2.3,MacIntel,66.66666667,611c77297d20cccefc24d80a,611e07ecdcc96256ae8d5b80,611e6ded028505af9a0773a4,
,,,,,,,0,150,150,311,1,X,1,2,7,3,,2500,2.5,Matt,001,2021-08-19_15h46.29,natb3,2021.2.3,MacIntel,66.66666667,611c77297d20cccefc24d80a,611e07ecdcc96256ae8d5b80,611e6ded028505af9a0773a4,
,,,,space,0.4,,0,151,151,48,1,A, , , , ,space,2500,2.5,Matt,001,2021-08-19_15h46.29,natb3,2021.2.3,MacIntel,66.66666667,611c77297d20cccefc24d80a,611e07ecdcc96256ae8d5b80,611e6ded028505af9a0773a4,
,,,,space,0.555,,0,152,152,94,1,C, , , , ,space,2000,2,Matt,001,2021-08-19_15h46.29,natb3,2021.2.3,MacIntel,66.66666667,611c77297d20cccefc24d80a,611e07ecdcc96256ae8d5b80,611e6ded028505af9a0773a4,
,,,,space,0.369,,0,153,153,55,1,H, , , , ,space,2500,2.5,Matt,001,2021-08-19_15h46.29,natb3,2021.2.3,MacIntel,66.66666667,611c77297d20cccefc24d80a,611e07ecdcc96256ae8d5b80,611e6ded028505af9a0773a4,
,,,,space,0.466,,0,154,154,241,1,G, , , , ,space,2500,2.5,Matt,001,2021-08-19_15h46.29,natb3,2021.2.3,MacIntel,66.66666667,611c77297d20cccefc24d80a,611e07ecdcc96256ae8d5b80,611e6ded028505af9a0773a4,
,,,,space,0.51,,0,155,155,306,1,D, , , , ,space,2000,2,Matt,001,2021-08-19_15h46.29,natb3,2021.2.3,MacIntel,66.66666667,611c77297d20cccefc24d80a,611e07ecdcc96256ae8d5b80,611e6ded028505af9a0773a4,
,,,,space,0.502,,0,156,156,115,1,R, , , , ,space,1500,1.5,Matt,001,2021-08-19_15h46.29,natb3,2021.2.3,MacIntel,66.66666667,611c77297d20cccefc24d80a,611e07ecdcc96256ae8d5b80,611e6ded028505af9a0773a4,
,,,,space,0.407,,0,157,157,119,1,Y, , , , ,space,2500,2.5,Matt,001,2021-08-19_15h46.29,natb3,2021.2.3,MacIntel,66.66666667,611c77297d20cccefc24d80a,611e07ecdcc96256ae8d5b80,611e6ded028505af9a0773a4,
,,,,space,0.401,,0,158,158,20,1,H, , , , ,space,1500,1.5,Matt,001,2021-08-19_15h46.29,natb3,2021.2.3,MacIntel,66.66666667,611c77297d20cccefc24d80a,611e07ecdcc96256ae8d5b80,611e6ded028505af9a0773a4,
,,,,space,0.381,,0,159,159,300,1,O, , , , ,space,2500,2.5,Matt,001,2021-08-19_15h46.29,natb3,2021.2.3,MacIntel,66.66666667,611c77297d20cccefc24d80a,611e07ecdcc96256ae8d5b80,611e6ded028505af9a0773a4,
,,,,space,0.38,,0,160,160,251,1,B, , , , ,space,1500,1.5,Matt,001,2021-08-19_15h46.29,natb3,2021.2.3,MacIntel,66.66666667,611c77297d20cccefc24d80a,611e07ecdcc96256ae8d5b80,611e6ded028505af9a0773a4,
,,,,,,,0,161,161,158,1,X, , , , ,,1500,1.5,Matt,001,2021-08-19_15h46.29,natb3,2021.2.3,MacIntel,66.66666667,611c77297d20cccefc24d80a,611e07ecdcc96256ae8d5b80,611e6ded028505af9a0773a4,
,,,,space,0.415,,0,162,162,294,1,T, , , , ,space,2000,2,Matt,001,2021-08-19_15h46.29,natb3,2021.2.3,MacIntel,66.66666667,611c77297d20cccefc24d80a,611e07ecdcc96256ae8d5b80,611e6ded028505af9a0773a4,
,,,,space,0.372,,0,163,163,124,1,P, , , , ,space,2000,2,Matt,001,2021-08-19_15h46.29,natb3,2021.2.3,MacIntel,66.66666667,611c77297d20cccefc24d80a,611e07ecdcc96256ae8d5b80,611e6ded028505af9a0773a4,
,,,,space,0.384,,0,164,164,65,1,M, , , , ,space,1500,1.5,Matt,001,2021-08-19_15h46.29,natb3,2021.2.3,MacIntel,66.66666667,611c77297d20cccefc24d80a,611e07ecdcc96256ae8d5b80,611e6ded028505af9a0773a4,
,,,,,,,0,165,165,171,1,X, , , , ,,1500,1.5,Matt,001,2021-08-19_15h46.29,natb3,2021.2.3,MacIntel,66.66666667,611c77297d20cccefc24d80a,611e07ecdcc96256ae8d5b80,611e6ded028505af9a0773a4,
,,,,space,0.367,,0,166,166,290,1,W, , , , ,space,1500,1.5,Matt,001,2021-08-19_15h46.29,natb3,2021.2.3,MacIntel,66.66666667,611c77297d20cccefc24d80a,611e07ecdcc96256ae8d5b80,611e6ded028505af9a0773a4,
,,,,space,0.4,space,0,167,167,71,1,R, , , , ,space,2500,2.5,Matt,001,2021-08-19_15h46.29,natb3,2021.2.3,MacIntel,66.66666667,611c77297d20cccefc24d80a,611e07ecdcc96256ae8d5b80,611e6ded028505af9a0773a4,69.839
,,,,space,0.395,,0,168,168,190,1,P, , , , ,space,2000,2,Matt,001,2021-08-19_15h46.29,natb3,2021.2.3,MacIntel,66.66666667,611c77297d20cccefc24d80a,611e07ecdcc96256ae8d5b80,611e6ded028505af9a0773a4,
,,,,space,0.384,,0,169,169,104,1,E, , , , ,space,2000,2,Matt,001,2021-08-19_15h46.29,natb3,2021.2.3,MacIntel,66.66666667,611c77297d20cccefc24d80a,611e07ecdcc96256ae8d5b80,611e6ded028505af9a0773a4,
,,,,space,0.456,,0,170,170,13,1,A, , , , ,space,2000,2,Matt,001,2021-08-19_15h46.29,natb3,2021.2.3,MacIntel,66.66666667,611c77297d20cccefc24d80a,611e07ecdcc96256ae8d5b80,611e6ded028505af9a0773a4,
,,,,space,0.372,,0,171,171,223,1,Q, , , , ,space,2000,2,Matt,001,2021-08-19_15h46.29,natb3,2021.2.3,MacIntel,66.66666667,611c77297d20cccefc24d80a,611e07ecdcc96256ae8d5b80,611e6ded028505af9a0773a4,
,,,,space,0.782,,0,172,172,267,1,P, , , , ,space,2000,2,Matt,001,2021-08-19_15h46.29,natb3,2021.2.3,MacIntel,66.66666667,611c77297d20cccefc24d80a,611e07ecdcc96256ae8d5b80,611e6ded028505af9a0773a4,
,,,,space,0.349,,0,173,173,159,1,S, , , , ,space,2500,2.5,Matt,001,2021-08-19_15h46.29,natb3,2021.2.3,MacIntel,66.66666667,611c77297d20cccefc24d80a,611e07ecdcc96256ae8d5b80,611e6ded028505af9a0773a4,
,,,,space,0.39,,0,174,174,78,1,X, , , , ,,2000,2,Matt,001,2021-08-19_15h46.29,natb3,2021.2.3,MacIntel,66.66666667,611c77297d20cccefc24d80a,611e07ecdcc96256ae8d5b80,611e6ded028505af9a0773a4,
,,,,space,0.372,,0,175,175,265,1,I, , , , ,space,2000,2,Matt,001,2021-08-19_15h46.29,natb3,2021.2.3,MacIntel,66.66666667,611c77297d20cccefc24d80a,611e07ecdcc96256ae8d5b80,611e6ded028505af9a0773a4,
,,,,,,,0,176,176,31,1,X, , , , ,,1500,1.5,Matt,001,2021-08-19_15h46.29,natb3,2021.2.3,MacIntel,66.66666667,611c77297d20cccefc24d80a,611e07ecdcc96256ae8d5b80,611e6ded028505af9a0773a4,
,,,,space,0.421,,0,177,177,289,1,Q, , , , ,space,2000,2,Matt,001,2021-08-19_15h46.29,natb3,2021.2.3,MacIntel,66.66666667,611c77297d20cccefc24d80a,611e07ecdcc96256ae8d5b80,611e6ded028505af9a0773a4,
,,,,space,0.58,,0,178,178,146,1,W, , , , ,space,1500,1.5,Matt,001,2021-08-19_15h46.29,natb3,2021.2.3,MacIntel,66.66666667,611c77297d20cccefc24d80a,611e07ecdcc96256ae8d5b80,611e6ded028505af9a0773a4,
,,,,,,,0,179,179,207,1,X,9, ,2, ,,2500,2.5,Matt,001,2021-08-19_15h46.29,natb3,2021.2.3,MacIntel,66.66666667,611c77297d20cccefc24d80a,611e07ecdcc96256ae8d5b80,611e6ded028505af9a0773a4,
,,,,space,0.449,,0,180,180,194,1,D, , , , ,space,2000,2,Matt,001,2021-08-19_15h46.29,natb3,2021.2.3,MacIntel,66.66666667,611c77297d20cccefc24d80a,611e07ecdcc96256ae8d5b80,611e6ded028505af9a0773a4,
,,,,space,0.518,,0,181,181,176,1,N, , , , ,space,1500,1.5,Matt,001,2021-08-19_15h46.29,natb3,2021.2.3,MacIntel,66.66666667,611c77297d20cccefc24d80a,611e07ecdcc96256ae8d5b80,611e6ded028505af9a0773a4,
,,,,space,0.415,,0,182,182,111,1,O, , , , ,space,2000,2,Matt,001,2021-08-19_15h46.29,natb3,2021.2.3,MacIntel,66.66666667,611c77297d20cccefc24d80a,611e07ecdcc96256ae8d5b80,611e6ded028505af9a0773a4,
,,,,,,,0,183,183,46,1,X, , , , ,,2000,2,Matt,001,2021-08-19_15h46.29,natb3,2021.2.3,MacIntel,66.66666667,611c77297d20cccefc24d80a,611e07ecdcc96256ae8d5b80,611e6ded028505af9a0773a4,
,,,,space,0.386,,0,184,184,47,1,P, , , , ,space,2000,2,Matt,001,2021-08-19_15h46.29,natb3,2021.2.3,MacIntel,66.66666667,611c77297d20cccefc24d80a,611e07ecdcc96256ae8d5b80,611e6ded028505af9a0773a4,
,,,,space,0.375,,0,185,185,127,1,S, , , , ,space,2500,2.5,Matt,001,2021-08-19_15h46.29,natb3,2021.2.3,MacIntel,66.66666667,611c77297d20cccefc24d80a,611e07ecdcc96256ae8d5b80,611e6ded028505af9a0773a4,
,,,,,,,0,186,186,153,1,X,4,7, ,6,,2000,2,Matt,001,2021-08-19_15h46.29,natb3,2021.2.3,MacIntel,66.66666667,611c77297d20cccefc24d80a,611e07ecdcc96256ae8d5b80,611e6ded028505af9a0773a4,
,,,,,,,0,187,187,27,1,X,5, ,1,3,,1500,1.5,Matt,001,2021-08-19_15h46.29,natb3,2021.2.3,MacIntel,66.66666667,611c77297d20cccefc24d80a,611e07ecdcc96256ae8d5b80,611e6ded028505af9a0773a4,
,,,,space,0.435,,0,188,188,237,1,S, , , , ,space,1500,1.5,Matt,001,2021-08-19_15h46.29,natb3,2021.2.3,MacIntel,66.66666667,611c77297d20cccefc24d80a,611e07ecdcc96256ae8d5b80,611e6ded028505af9a0773a4,
,,,,space,0.432,,0,189,189,216,1,R, , , , ,space,1500,1.5,Matt,001,2021-08-19_15h46.29,natb3,2021.2.3,MacIntel,66.66666667,611c77297d20cccefc24d80a,611e07ecdcc96256ae8d5b80,611e6ded028505af9a0773a4,
,,,,space,0.403,,0,190,190,215,1,E, , , , ,space,2500,2.5,Matt,001,2021-08-19_15h46.29,natb3,2021.2.3,MacIntel,66.66666667,611c77297d20cccefc24d80a,611e07ecdcc96256ae8d5b80,611e6ded028505af9a0773a4,
,,,,,,,0,191,191,175,1,X,7, ,4,2,,1500,1.5,Matt,001,2021-08-19_15h46.29,natb3,2021.2.3,MacIntel,66.66666667,611c77297d20cccefc24d80a,611e07ecdcc96256ae8d5b80,611e6ded028505af9a0773a4,
,,,,,,,0,192,192,213,1,X, , , , ,,2500,2.5,Matt,001,2021-08-19_15h46.29,natb3,2021.2.3,MacIntel,66.66666667,611c77297d20cccefc24d80a,611e07ecdcc96256ae8d5b80,611e6ded028505af9a0773a4,
,,,,space,0.432,,0,193,193,226,1,R, , , , ,space,2000,2,Matt,001,2021-08-19_15h46.29,natb3,2021.2.3,MacIntel,66.66666667,611c77297d20cccefc24d80a,611e07ecdcc96256ae8d5b80,611e6ded028505af9a0773a4,
,,,,space,0.549,,0,194,194,308,1,G, , , , ,space,1500,1.5,Matt,001,2021-08-19_15h46.29,natb3,2021.2.3,MacIntel,66.66666667,611c77297d20cccefc24d80a,611e07ecdcc96256ae8d5b80,611e6ded028505af9a0773a4,
,,,,,,,0,195,195,84,1,X, , , , ,,2000,2,Matt,001,2021-08-19_15h46.29,natb3,2021.2.3,MacIntel,66.66666667,611c77297d20cccefc24d80a,611e07ecdcc96256ae8d5b80,611e6ded028505af9a0773a4,
,,,,,,,0,196,196,4,1,X, , , , ,,2000,2,Matt,001,2021-08-19_15h46.29,natb3,2021.2.3,MacIntel,66.66666667,611c77297d20cccefc24d80a,611e07ecdcc96256ae8d5b80,611e6ded028505af9a0773a4,
,,,,,,,0,197,197,299,1,X, , , , ,,2500,2.5,Matt,001,2021-08-19_15h46.29,natb3,2021.2.3,MacIntel,66.66666667,611c77297d20cccefc24d80a,611e07ecdcc96256ae8d5b80,611e6ded028505af9a0773a4,
,,,,space,0.397,,0,198,198,149,1,R, , , , ,space,2000,2,Matt,001,2021-08-19_15h46.29,natb3,2021.2.3,MacIntel,66.66666667,611c77297d20cccefc24d80a,611e07ecdcc96256ae8d5b80,611e6ded028505af9a0773a4,
,,,,,,,0,199,199,138,1,X,8,5, ,3,,2000,2,Matt,001,2021-08-19_15h46.29,natb3,2021.2.3,MacIntel,66.66666667,611c77297d20cccefc24d80a,611e07ecdcc96256ae8d5b80,611e6ded028505af9a0773a4,
,,,,space,0.442,,0,200,200,44,1,I, , , , ,space,2500,2.5,Matt,001,2021-08-19_15h46.29,natb3,2021.2.3,MacIntel,66.66666667,611c77297d20cccefc24d80a,611e07ecdcc96256ae8d5b80,611e6ded028505af9a0773a4,
,,,,space,0.416,,0,201,201,192,1,A, , , , ,space,2000,2,Matt,001,2021-08-19_15h46.29,natb3,2021.2.3,MacIntel,66.66666667,611c77297d20cccefc24d80a,611e07ecdcc96256ae8d5b80,611e6ded028505af9a0773a4,
,,,,space,0.398,,0,202,202,260,1,R, , , , ,space,2000,2,Matt,001,2021-08-19_15h46.29,natb3,2021.2.3,MacIntel,66.66666667,611c77297d20cccefc24d80a,611e07ecdcc96256ae8d5b80,611e6ded028505af9a0773a4,
,,,,space,0.377,,0,203,203,281,1,Z, , , , ,space,1500,1.5,Matt,001,2021-08-19_15h46.29,natb3,2021.2.3,MacIntel,66.66666667,611c77297d20cccefc24d80a,611e07ecdcc96256ae8d5b80,611e6ded028505af9a0773a4,
,,,,space,0.381,,0,204,204,86,1,G, , , , ,space,2000,2,Matt,001,2021-08-19_15h46.29,natb3,2021.2.3,MacIntel,66.66666667,611c77297d20cccefc24d80a,611e07ecdcc96256ae8d5b80,611e6ded028505af9a0773a4,
,,,,space,0.374,,0,205,205,117,1,T, , , , ,space,2500,2.5,Matt,001,2021-08-19_15h46.29,natb3,2021.2.3,MacIntel,66.66666667,611c77297d20cccefc24d80a,611e07ecdcc96256ae8d5b80,611e6ded028505af9a0773a4,
,,,,space,0.34,,0,206,206,193,1,S, , , , ,space,2500,2.5,Matt,001,2021-08-19_15h46.29,natb3,2021.2.3,MacIntel,66.66666667,611c77297d20cccefc24d80a,611e07ecdcc96256ae8d5b80,611e6ded028505af9a0773a4,
,,,,space,0.359,,0,207,207,309,1,H, , , , ,space,2500,2.5,Matt,001,2021-08-19_15h46.29,natb3,2021.2.3,MacIntel,66.66666667,611c77297d20cccefc24d80a,611e07ecdcc96256ae8d5b80,611e6ded028505af9a0773a4,
,,,,space,0.43,,0,208,208,219,1,Y, , , , ,space,2000,2,Matt,001,2021-08-19_15h46.29,natb3,2021.2.3,MacIntel,66.66666667,611c77297d20cccefc24d80a,611e07ecdcc96256ae8d5b80,611e6ded028505af9a0773a4,
,,,,space,0.442,,0,209,209,334,1,O, , , , ,space,1500,1.5,Matt,001,2021-08-19_15h46.29,natb3,2021.2.3,MacIntel,66.66666667,611c77297d20cccefc24d80a,611e07ecdcc96256ae8d5b80,611e6ded028505af9a0773a4,
,,,,space,0.464,,0,210,210,1,1,W, , , , ,space,2000,2,Matt,001,2021-08-19_15h46.29,natb3,2021.2.3,MacIntel,66.66666667,611c77297d20cccefc24d80a,611e07ecdcc96256ae8d5b80,611e6ded028505af9a0773a4,
,,,,,,,0,211,211,162,1,X,1,6, ,2,,1500,1.5,Matt,001,2021-08-19_15h46.29,natb3,2021.2.3,MacIntel,66.66666667,611c77297d20cccefc24d80a,611e07ecdcc96256ae8d5b80,611e6ded028505af9a0773a4,
,,,,space,0.4,,0,212,212,270,1,S, , , , ,space,1500,1.5,Matt,001,2021-08-19_15h46.29,natb3,2021.2.3,MacIntel,66.66666667,611c77297d20cccefc24d80a,611e07ecdcc96256ae8d5b80,611e6ded028505af9a0773a4,
,,,,space,0.381,,0,213,213,208,1,B, , , , ,space,1500,1.5,Matt,001,2021-08-19_15h46.29,natb3,2021.2.3,MacIntel,66.66666667,611c77297d20cccefc24d80a,611e07ecdcc96256ae8d5b80,611e6ded028505af9a0773a4,
,,,,space,0.393,,0,214,214,88,1,J, , , , ,space,2500,2.5,Matt,001,2021-08-19_15h46.29,natb3,2021.2.3,MacIntel,66.66666667,611c77297d20cccefc24d80a,611e07ecdcc96256ae8d5b80,611e6ded028505af9a0773a4,
,,,,space,0.481,,0,215,215,314,1,L, , , , ,space,1500,1.5,Matt,001,2021-08-19_15h46.29,natb3,2021.2.3,MacIntel,66.66666667,611c77297d20cccefc24d80a,611e07ecdcc96256ae8d5b80,611e6ded028505af9a0773a4,
,,,,space,0.406,,0,216,216,130,1,F, , , , ,space,2000,2,Matt,001,2021-08-19_15h46.29,natb3,2021.2.3,MacIntel,66.66666667,611c77297d20cccefc24d80a,611e07ecdcc96256ae8d5b80,611e6ded028505af9a0773a4,
,,,,space,0.397,,0,217,217,73,1,Y, , , , ,space,2000,2,Matt,001,2021-08-19_15h46.29,natb3,2021.2.3,MacIntel,66.66666667,611c77297d20cccefc24d80a,611e07ecdcc96256ae8d5b80,611e6ded028505af9a0773a4,
,,,,,,,0,218,218,318,1,X, , , , ,,1500,1.5,Matt,001,2021-08-19_15h46.29,natb3,2021.2.3,MacIntel,66.66666667,611c77297d20cccefc24d80a,611e07ecdcc96256ae8d5b80,611e6ded028505af9a0773a4,
,,,,space,0.369,,0,219,219,320,1,B, , , , ,space,1500,1.5,Matt,001,2021-08-19_15h46.29,natb3,2021.2.3,MacIntel,66.66666667,611c77297d20cccefc24d80a,611e07ecdcc96256ae8d5b80,611e6ded028505af9a0773a4,
,,,,,,,0,220,220,182,1,X, , , , ,,1500,1.5,Matt,001,2021-08-19_15h46.29,natb3,2021.2.3,MacIntel,66.66666667,611c77297d20cccefc24d80a,611e07ecdcc96256ae8d5b80,611e6ded028505af9a0773a4,
,,,,,,,0,221,221,277,1,X,8,5, ,2,,2000,2,Matt,001,2021-08-19_15h46.29,natb3,2021.2.3,MacIntel,66.66666667,611c77297d20cccefc24d80a,611e07ecdcc96256ae8d5b80,611e6ded028505af9a0773a4,
,,,,space,0.427,,0,222,222,95,1,V, , , , ,space,1500,1.5,Matt,001,2021-08-19_15h46.29,natb3,2021.2.3,MacIntel,66.66666667,611c77297d20cccefc24d80a,611e07ecdcc96256ae8d5b80,611e6ded028505af9a0773a4,
,,,,,,,0,223,223,133,1,X, ,4, ,6,,2500,2.5,Matt,001,2021-08-19_15h46.29,natb3,2021.2.3,MacIntel,66.66666667,611c77297d20cccefc24d80a,611e07ecdcc96256ae8d5b80,611e6ded028505af9a0773a4,
,,,,space,0.521,,0,224,224,321,1,N, , , , ,space,2000,2,Matt,001,2021-08-19_15h46.29,natb3,2021.2.3,MacIntel,66.66666667,611c77297d20cccefc24d80a,611e07ecdcc96256ae8d5b80,611e6ded028505af9a0773a4,
,,,,space,0.384,,0,225,225,134,1,J, , , , ,space,2000,2,Matt,001,2021-08-19_15h46.29,natb3,2021.2.3,MacIntel,66.66666667,611c77297d20cccefc24d80a,611e07ecdcc96256ae8d5b80,611e6ded028505af9a0773a4,
,,,,,,,0,226,226,33,1,X, , , , ,,1500,1.5,Matt,001,2021-08-19_15h46.29,natb3,2021.2.3,MacIntel,66.66666667,611c77297d20cccefc24d80a,611e07ecdcc96256ae8d5b80,611e6ded028505af9a0773a4,
,,,,space,0.382,,0,227,227,36,1,W, , , , ,space,2000,2,Matt,001,2021-08-19_15h46.29,natb3,2021.2.3,MacIntel,66.66666667,611c77297d20cccefc24d80a,611e07ecdcc96256ae8d5b80,611e6ded028505af9a0773a4,
,,,,space,0.481,,0,228,228,258,1,E, , , , ,space,1500,1.5,Matt,001,2021-08-19_15h46.29,natb3,2021.2.3,MacIntel,66.66666667,611c77297d20cccefc24d80a,611e07ecdcc96256ae8d5b80,611e6ded028505af9a0773a4,
,,,,space,0.431,,0,229,229,40,1,T, , , , ,space,1500,1.5,Matt,001,2021-08-19_15h46.29,natb3,2021.2.3,MacIntel,66.66666667,611c77297d20cccefc24d80a,611e07ecdcc96256ae8d5b80,611e6ded028505af9a0773a4,
,,,,space,0.433,,0,230,230,160,1,D, , , , ,space,1500,1.5,Matt,001,2021-08-19_15h46.29,natb3,2021.2.3,MacIntel,66.66666667,611c77297d20cccefc24d80a,611e07ecdcc96256ae8d5b80,611e6ded028505af9a0773a4,
,,,,space,0.393,,0,231,231,132,1,H, , , , ,space,2500,2.5,Matt,001,2021-08-19_15h46.29,natb3,2021.2.3,MacIntel,66.66666667,611c77297d20cccefc24d80a,611e07ecdcc96256ae8d5b80,611e6ded028505af9a0773a4,
,,,,space,0.382,,0,232,232,143,1,M, , , , ,space,2500,2.5,Matt,001,2021-08-19_15h46.29,natb3,2021.2.3,MacIntel,66.66666667,611c77297d20cccefc24d80a,611e07ecdcc96256ae8d5b80,611e6ded028505af9a0773a4,
,,,,space,0.49,,0,233,233,77,1,O, , , , ,space,2000,2,Matt,001,2021-08-19_15h46.29,natb3,2021.2.3,MacIntel,66.66666667,611c77297d20cccefc24d80a,611e07ecdcc96256ae8d5b80,611e6ded028505af9a0773a4,
,,,,space,0.427,,0,234,234,324,1,Q, , , , ,space,2000,2,Matt,001,2021-08-19_15h46.29,natb3,2021.2.3,MacIntel,66.66666667,611c77297d20cccefc24d80a,611e07ecdcc96256ae8d5b80,611e6ded028505af9a0773a4,
,,,,space,0.431,,0,235,235,199,1,J, , , , ,space,2500,2.5,Matt,001,2021-08-19_15h46.29,natb3,2021.2.3,MacIntel,66.66666667,611c77297d20cccefc24d80a,611e07ecdcc96256ae8d5b80,611e6ded028505af9a0773a4,
,,,,space,0.449,,0,236,236,274,1,F, , , , ,space,2000,2,Matt,001,2021-08-19_15h46.29,natb3,2021.2.3,MacIntel,66.66666667,611c77297d20cccefc24d80a,611e07ecdcc96256ae8d5b80,611e6ded028505af9a0773a4,
,,,,,,,0,237,237,236,1,X,3, ,4,7,,2500,2.5,Matt,001,2021-08-19_15h46.29,natb3,2021.2.3,MacIntel,66.66666667,611c77297d20cccefc24d80a,611e07ecdcc96256ae8d5b80,611e6ded028505af9a0773a4,
,,,,space,0.46,,0,238,238,303,1,A, , , , ,space,2000,2,Matt,001,2021-08-19_15h46.29,natb3,2021.2.3,MacIntel,66.66666667,611c77297d20cccefc24d80a,611e07ecdcc96256ae8d5b80,611e6ded028505af9a0773a4,
,,,,,,,0,239,239,141,1,X,1, ,4,6,,1500,1.5,Matt,001,2021-08-19_15h46.29,natb3,2021.2.3,MacIntel,66.66666667,611c77297d20cccefc24d80a,611e07ecdcc96256ae8d5b80,611e6ded028505af9a0773a4,
,,,,space,0.392,,0,240,240,123,1,O, , , , ,space,1500,1.5,Matt,001,2021-08-19_15h46.29,natb3,2021.2.3,MacIntel,66.66666667,611c77297d20cccefc24d80a,611e07ecdcc96256ae8d5b80,611e6ded028505af9a0773a4,
,,,,space,0.465,,0,241,241,100,1,M, , , , ,space,2000,2,Matt,001,2021-08-19_15h46.29,natb3,2021.2.3,MacIntel,66.66666667,611c77297d20cccefc24d80a,611e07ecdcc96256ae8d5b80,611e6ded028505af9a0773a4,
,,,,space,0.346,,0,242,242,332,1,U, , , , ,space,2000,2,Matt,001,2021-08-19_15h46.29,natb3,2021.2.3,MacIntel,66.66666667,611c77297d20cccefc24d80a,611e07ecdcc96256ae8d5b80,611e6ded028505af9a0773a4,
,,,,,,,0,243,243,145,1,X, , , , ,,2000,2,Matt,001,2021-08-19_15h46.29,natb3,2021.2.3,MacIntel,66.66666667,611c77297d20cccefc24d80a,611e07ecdcc96256ae8d5b80,611e6ded028505af9a0773a4,
,,,,space,0.376,,0,244,244,323,1,M, , , , ,space,2500,2.5,Matt,001,2021-08-19_15h46.29,natb3,2021.2.3,MacIntel,66.66666667,611c77297d20cccefc24d80a,611e07ecdcc96256ae8d5b80,611e6ded028505af9a0773a4,
,,,,space,0.592,,0,245,245,9,1,I, , , , ,space,1500,1.5,Matt,001,2021-08-19_15h46.29,natb3,2021.2.3,MacIntel,66.66666667,611c77297d20cccefc24d80a,611e07ecdcc96256ae8d5b80,611e6ded028505af9a0773a4,
,,,,space,0.391,,0,246,246,101,1,Q, , , , ,space,2500,2.5,Matt,001,2021-08-19_15h46.29,natb3,2021.2.3,MacIntel,66.66666667,611c77297d20cccefc24d80a,611e07ecdcc96256ae8d5b80,611e6ded028505af9a0773a4,
,,,,,,,0,247,247,43,1,X, ,6, ,2,,2500,2.5,Matt,001,2021-08-19_15h46.29,natb3,2021.2.3,MacIntel,66.66666667,611c77297d20cccefc24d80a,611e07ecdcc96256ae8d5b80,611e6ded028505af9a0773a4,
,,,,space,0.587,,0,248,248,189,1,O, , , , ,space,1500,1.5,Matt,001,2021-08-19_15h46.29,natb3,2021.2.3,MacIntel,66.66666667,611c77297d20cccefc24d80a,611e07ecdcc96256ae8d5b80,611e6ded028505af9a0773a4,
,,,,space,0.38,,0,249,249,24,1,L, , , , ,space,2500,2.5,Matt,001,2021-08-19_15h46.29,natb3,2021.2.3,MacIntel,66.66666667,611c77297d20cccefc24d80a,611e07ecdcc96256ae8d5b80,611e6ded028505af9a0773a4,
,,,,space,0.382,,0,250,250,19,1,G, , , , ,space,1500,1.5,Matt,001,2021-08-19_15h46.29,natb3,2021.2.3,MacIntel,66.66666667,611c77297d20cccefc24d80a,611e07ecdcc96256ae8d5b80,611e6ded028505af9a0773a4,
,,,,,,,0,251,251,291,1,X, , , , ,,2000,2,Matt,001,2021-08-19_15h46.29,natb3,2021.2.3,MacIntel,66.66666667,611c77297d20cccefc24d80a,611e07ecdcc96256ae8d5b80,611e6ded028505af9a0773a4,
,,,,space,0.393,,0,252,252,220,1,U, , , , ,space,2500,2.5,Matt,001,2021-08-19_15h46.29,natb3,2021.2.3,MacIntel,66.66666667,611c77297d20cccefc24d80a,611e07ecdcc96256ae8d5b80,611e6ded028505af9a0773a4,
,,,,space,0.386,,0,253,253,276,1,H, , , , ,space,2000,2,Matt,001,2021-08-19_15h46.29,natb3,2021.2.3,MacIntel,66.66666667,611c77297d20cccefc24d80a,611e07ecdcc96256ae8d5b80,611e6ded028505af9a0773a4,
,,,,,,,0,254,254,89,1,X,3, , , ,,2000,2,Matt,001,2021-08-19_15h46.29,natb3,2021.2.3,MacIntel,66.66666667,611c77297d20cccefc24d80a,611e07ecdcc96256ae8d5b80,611e6ded028505af9a0773a4,
,,,,space,0.516,,0,255,255,288,1,M, , , , ,space,1500,1.5,Matt,001,2021-08-19_15h46.29,natb3,2021.2.3,MacIntel,66.66666667,611c77297d20cccefc24d80a,611e07ecdcc96256ae8d5b80,611e6ded028505af9a0773a4,
,,,,space,0.576,,0,256,256,32,1,M, , , , ,space,1500,1.5,Matt,001,2021-08-19_15h46.29,natb3,2021.2.3,MacIntel,66.66666667,611c77297d20cccefc24d80a,611e07ecdcc96256ae8d5b80,611e6ded028505af9a0773a4,
,,,,space,0.364,,0,257,257,37,1,E, , , , ,space,2500,2.5,Matt,001,2021-08-19_15h46.29,natb3,2021.2.3,MacIntel,66.66666667,611c77297d20cccefc24d80a,611e07ecdcc96256ae8d5b80,611e6ded028505af9a0773a4,
,,,,space,0.486,,0,258,258,214,1,W, , , , ,space,2000,2,Matt,001,2021-08-19_15h46.29,natb3,2021.2.3,MacIntel,66.66666667,611c77297d20cccefc24d80a,611e07ecdcc96256ae8d5b80,611e6ded028505af9a0773a4,
,,,,space,0.444,,0,259,259,286,1,N, , , , ,space,1500,1.5,Matt,001,2021-08-19_15h46.29,natb3,2021.2.3,MacIntel,66.66666667,611c77297d20cccefc24d80a,611e07ecdcc96256ae8d5b80,611e6ded028505af9a0773a4,
,,,,space,0.413,,0,260,260,109,1,U, , , , ,space,1500,1.5,Matt,001,2021-08-19_15h46.29,natb3,2021.2.3,MacIntel,66.66666667,611c77297d20cccefc24d80a,611e07ecdcc96256ae8d5b80,611e6ded028505af9a0773a4,
,,,,space,0.432,,0,261,261,68,1,W, , , , ,space,2500,2.5,Matt,001,2021-08-19_15h46.29,natb3,2021.2.3,MacIntel,66.66666667,611c77297d20cccefc24d80a,611e07ecdcc96256ae8d5b80,611e6ded028505af9a0773a4,
,,,,space,0.409,,0,262,262,154,1,I, , , , ,space,2500,2.5,Matt,001,2021-08-19_15h46.29,natb3,2021.2.3,MacIntel,66.66666667,611c77297d20cccefc24d80a,611e07ecdcc96256ae8d5b80,611e6ded028505af9a0773a4,
,,,,space,0.382,,0,263,263,266,1,O, , , , ,space,1500,1.5,Matt,001,2021-08-19_15h46.29,natb3,2021.2.3,MacIntel,66.66666667,611c77297d20cccefc24d80a,611e07ecdcc96256ae8d5b80,611e6ded028505af9a0773a4,
,,,,,,,0,264,264,69,1,X, , , , ,,1500,1.5,Matt,001,2021-08-19_15h46.29,natb3,2021.2.3,MacIntel,66.66666667,611c77297d20cccefc24d80a,611e07ecdcc96256ae8d5b80,611e6ded028505af9a0773a4,
,,,,space,0.34,,0,265,265,310,1,J, , , , ,space,2500,2.5,Matt,001,2021-08-19_15h46.29,natb3,2021.2.3,MacIntel,66.66666667,611c77297d20cccefc24d80a,611e07ecdcc96256ae8d5b80,611e6ded028505af9a0773a4,
,,,,space,0.382,,0,266,266,126,1,A, , , , ,space,2500,2.5,Matt,001,2021-08-19_15h46.29,natb3,2021.2.3,MacIntel,66.66666667,611c77297d20cccefc24d80a,611e07ecdcc96256ae8d5b80,611e6ded028505af9a0773a4,
,,,,space,0.484,,0,267,267,108,1,Y, , , , ,space,2500,2.5,Matt,001,2021-08-19_15h46.29,natb3,2021.2.3,MacIntel,66.66666667,611c77297d20cccefc24d80a,611e07ecdcc96256ae8d5b80,611e6ded028505af9a0773a4,
,,,,space,0.585,,0,268,268,21,1,J, , , , ,space,1500,1.5,Matt,001,2021-08-19_15h46.29,natb3,2021.2.3,MacIntel,66.66666667,611c77297d20cccefc24d80a,611e07ecdcc96256ae8d5b80,611e6ded028505af9a0773a4,
,,,,,,,0,269,269,263,1,X,4, ,6, ,,1500,1.5,Matt,001,2021-08-19_15h46.29,natb3,2021.2.3,MacIntel,66.66666667,611c77297d20cccefc24d80a,611e07ecdcc96256ae8d5b80,611e6ded028505af9a0773a4,
,,,,space,0.369,,0,270,270,97,1,B, , , , ,space,2500,2.5,Matt,001,2021-08-19_15h46.29,natb3,2021.2.3,MacIntel,66.66666667,611c77297d20cccefc24d80a,611e07ecdcc96256ae8d5b80,611e6ded028505af9a0773a4,
,,,,space,0.393,,0,271,271,196,1,F, , , , ,space,1500,1.5,Matt,001,2021-08-19_15h46.29,natb3,2021.2.3,MacIntel,66.66666667,611c77297d20cccefc24d80a,611e07ecdcc96256ae8d5b80,611e6ded028505af9a0773a4,
,,,,space,0.367,,0,272,272,85,1,F, , , , ,space,2500,2.5,Matt,001,2021-08-19_15h46.29,natb3,2021.2.3,MacIntel,66.66666667,611c77297d20cccefc24d80a,611e07ecdcc96256ae8d5b80,611e6ded028505af9a0773a4,
,,,,,,,0,273,273,93,1,X,5, ,7, ,,2500,2.5,Matt,001,2021-08-19_15h46.29,natb3,2021.2.3,MacIntel,66.66666667,611c77297d20cccefc24d80a,611e07ecdcc96256ae8d5b80,611e6ded028505af9a0773a4,
,,,,space,0.42,,0,274,274,297,1,U, , , , ,space,2000,2,Matt,001,2021-08-19_15h46.29,natb3,2021.2.3,MacIntel,66.66666667,611c77297d20cccefc24d80a,611e07ecdcc96256ae8d5b80,611e6ded028505af9a0773a4,
,,,,space,0.422,,0,275,275,67,1,Q, , , , ,space,2000,2,Matt,001,2021-08-19_15h46.29,natb3,2021.2.3,MacIntel,66.66666667,611c77297d20cccefc24d80a,611e07ecdcc96256ae8d5b80,611e6ded028505af9a0773a4,
,,,,,,,0,276,276,60,1,X,7,3,5, ,,1500,1.5,Matt,001,2021-08-19_15h46.29,natb3,2021.2.3,MacIntel,66.66666667,611c77297d20cccefc24d80a,611e07ecdcc96256ae8d5b80,611e6ded028505af9a0773a4,
,,,,space,0.437,,0,277,277,227,1,T, , , , ,space,1500,1.5,Matt,001,2021-08-19_15h46.29,natb3,2021.2.3,MacIntel,66.66666667,611c77297d20cccefc24d80a,611e07ecdcc96256ae8d5b80,611e6ded028505af9a0773a4,
,,,,,,,0,278,278,125,1,X, , , , ,,2000,2,Matt,001,2021-08-19_15h46.29,natb3,2021.2.3,MacIntel,66.66666667,611c77297d20cccefc24d80a,611e07ecdcc96256ae8d5b80,611e6ded028505af9a0773a4,
,,,,space,0.391,,0,279,279,264,1,U, , , , ,space,2000,2,Matt,001,2021-08-19_15h46.29,natb3,2021.2.3,MacIntel,66.66666667,611c77297d20cccefc24d80a,611e07ecdcc96256ae8d5b80,611e6ded028505af9a0773a4,
,,,,space,0.362,,0,280,280,75,1,U, , , , ,space,1500,1.5,Matt,001,2021-08-19_15h46.29,natb3,2021.2.3,MacIntel,66.66666667,611c77297d20cccefc24d80a,611e07ecdcc96256ae8d5b80,611e6ded028505af9a0773a4,
,,,,space,0.408,,0,281,281,188,1,I, , , , ,space,2500,2.5,Matt,001,2021-08-19_15h46.29,natb3,2021.2.3,MacIntel,66.66666667,611c77297d20cccefc24d80a,611e07ecdcc96256ae8d5b80,611e6ded028505af9a0773a4,
,,,,space,0.474,,0,282,282,120,1,U, , , , ,space,1500,1.5,Matt,001,2021-08-19_15h46.29,natb3,2021.2.3,MacIntel,66.66666667,611c77297d20cccefc24d80a,611e07ecdcc96256ae8d5b80,611e6ded028505af9a0773a4,
,,,,,,,0,283,283,18,1,X, ,2,5,8,,2500,2.5,Matt,001,2021-08-19_15h46.29,natb3,2021.2.3,MacIntel,66.66666667,611c77297d20cccefc24d80a,611e07ecdcc96256ae8d5b80,611e6ded028505af9a0773a4,
,,,,space,0.462,,0,284,284,105,1,R, , , , ,space,2500,2.5,Matt,001,2021-08-19_15h46.29,natb3,2021.2.3,MacIntel,66.66666667,611c77297d20cccefc24d80a,611e07ecdcc96256ae8d5b80,611e6ded028505af9a0773a4,
,,,,space,0.381,,0,285,285,156,1,P, , , , ,space,1500,1.5,Matt,001,2021-08-19_15h46.29,natb3,2021.2.3,MacIntel,66.66666667,611c77297d20cccefc24d80a,611e07ecdcc96256ae8d5b80,611e6ded028505af9a0773a4,
,,,,space,0.438,,0,286,286,205,1,C, , , , ,space,2000,2,Matt,001,2021-08-19_15h46.29,natb3,2021.2.3,MacIntel,66.66666667,611c77297d20cccefc24d80a,611e07ecdcc96256ae8d5b80,611e6ded028505af9a0773a4,
,,,,space,0.375,,0,287,287,304,1,S, , , , ,space,2000,2,Matt,001,2021-08-19_15h46.29,natb3,2021.2.3,MacIntel,66.66666667,611c77297d20cccefc24d80a,611e07ecdcc96256ae8d5b80,611e6ded028505af9a0773a4,
,,,,space,0.495,,0,288,288,186,1,U, , , , ,space,2500,2.5,Matt,001,2021-08-19_15h46.29,natb3,2021.2.3,MacIntel,66.66666667,611c77297d20cccefc24d80a,611e07ecdcc96256ae8d5b80,611e6ded028505af9a0773a4,
,,,,space,0.366,,0,289,289,81,1,S, , , , ,space,2000,2,Matt,001,2021-08-19_15h46.29,natb3,2021.2.3,MacIntel,66.66666667,611c77297d20cccefc24d80a,611e07ecdcc96256ae8d5b80,611e6ded028505af9a0773a4,
,,,,space,0.366,,0,290,290,87,1,H, , , , ,space,1500,1.5,Matt,001,2021-08-19_15h46.29,natb3,2021.2.3,MacIntel,66.66666667,611c77297d20cccefc24d80a,611e07ecdcc96256ae8d5b80,611e6ded028505af9a0773a4,
,,,,space,0.346,,0,291,291,242,1,H, , , , ,space,2500,2.5,Matt,001,2021-08-19_15h46.29,natb3,2021.2.3,MacIntel,66.66666667,611c77297d20cccefc24d80a,611e07ecdcc96256ae8d5b80,611e6ded028505af9a0773a4,
,,,,space,0.406,,0,292,292,28,1,V, , , , ,space,1500,1.5,Matt,001,2021-08-19_15h46.29,natb3,2021.2.3,MacIntel,66.66666667,611c77297d20cccefc24d80a,611e07ecdcc96256ae8d5b80,611e6ded028505af9a0773a4,
,,,,space,0.35,,0,293,293,198,1,H, , , , ,space,2500,2.5,Matt,001,2021-08-19_15h46.29,natb3,2021.2.3,MacIntel,66.66666667,611c77297d20cccefc24d80a,611e07ecdcc96256ae8d5b80,611e6ded028505af9a0773a4,
,,,,,,,0,294,294,218,1,X,1,3, ,8,,1500,1.5,Matt,001,2021-08-19_15h46.29,natb3,2021.2.3,MacIntel,66.66666667,611c77297d20cccefc24d80a,611e07ecdcc96256ae8d5b80,611e6ded028505af9a0773a4,
,,,,space,0.425,,0,295,295,230,1,U, , , , ,space,1500,1.5,Matt,001,2021-08-19_15h46.29,natb3,2021.2.3,MacIntel,66.66666667,611c77297d20cccefc24d80a,611e07ecdcc96256ae8d5b80,611e6ded028505af9a0773a4,
,,,,space,0.393,,0,296,296,107,1,X,9,3, ,2,,2000,2,Matt,001,2021-08-19_15h46.29,natb3,2021.2.3,MacIntel,66.66666667,611c77297d20cccefc24d80a,611e07ecdcc96256ae8d5b80,611e6ded028505af9a0773a4,
,,,,space,0.509,,0,297,297,22,1,K, , , , ,space,2000,2,Matt,001,2021-08-19_15h46.29,natb3,2021.2.3,MacIntel,66.66666667,611c77297d20cccefc24d80a,611e07ecdcc96256ae8d5b80,611e6ded028505af9a0773a4,
,,,,space,0.557,,0,298,298,316,1,Z, , , , ,space,1500,1.5,Matt,001,2021-08-19_15h46.29,natb3,2021.2.3,MacIntel,66.66666667,611c77297d20cccefc24d80a,611e07ecdcc96256ae8d5b80,611e6ded028505af9a0773a4,
,,,,space,0.511,,0,299,299,245,1,K, , , , ,space,2000,2,Matt,001,2021-08-19_15h46.29,natb3,2021.2.3,MacIntel,66.66666667,611c77297d20cccefc24d80a,611e07ecdcc96256ae8d5b80,611e6ded028505af9a0773a4,
,,,,space,0.415,,0,300,300,114,1,E, , , , ,space,2000,2,Matt,001,2021-08-19_15h46.29,natb3,2021.2.3,MacIntel,66.66666667,611c77297d20cccefc24d80a,611e07ecdcc96256ae8d5b80,611e6ded028505af9a0773a4,
,,,,space,0.432,,0,301,301,262,1,Y, , , , ,space,2500,2.5,Matt,001,2021-08-19_15h46.29,natb3,2021.2.3,MacIntel,66.66666667,611c77297d20cccefc24d80a,611e07ecdcc96256ae8d5b80,611e6ded028505af9a0773a4,
,,,,space,0.492,,0,302,302,155,1,O, , , , ,space,1500,1.5,Matt,001,2021-08-19_15h46.29,natb3,2021.2.3,MacIntel,66.66666667,611c77297d20cccefc24d80a,611e07ecdcc96256ae8d5b80,611e6ded028505af9a0773a4,
,,,,space,0.361,,0,303,303,136,1,Z, , , , ,space,2500,2.5,Matt,001,2021-08-19_15h46.29,natb3,2021.2.3,MacIntel,66.66666667,611c77297d20cccefc24d80a,611e07ecdcc96256ae8d5b80,611e6ded028505af9a0773a4,
,,,,,,,0,304,304,268,1,X,6, ,3, ,,2500,2.5,Matt,001,2021-08-19_15h46.29,natb3,2021.2.3,MacIntel,66.66666667,611c77297d20cccefc24d80a,611e07ecdcc96256ae8d5b80,611e6ded028505af9a0773a4,
,,,,,,,0,305,305,239,1,X, , , , ,,2000,2,Matt,001,2021-08-19_15h46.29,natb3,2021.2.3,MacIntel,66.66666667,611c77297d20cccefc24d80a,611e07ecdcc96256ae8d5b80,611e6ded028505af9a0773a4,
,,,,space,0.432,,0,306,306,210,1,M, , , , ,space,1500,1.5,Matt,001,2021-08-19_15h46.29,natb3,2021.2.3,MacIntel,66.66666667,611c77297d20cccefc24d80a,611e07ecdcc96256ae8d5b80,611e6ded028505af9a0773a4,
,,,,,,,0,307,307,273,1,X, , , , ,,2000,2,Matt,001,2021-08-19_15h46.29,natb3,2021.2.3,MacIntel,66.66666667,611c77297d20cccefc24d80a,611e07ecdcc96256ae8d5b80,611e6ded028505af9a0773a4,
,,,,space,0.465,,0,308,308,163,1,G, , , , ,space,2500,2.5,Matt,001,2021-08-19_15h46.29,natb3,2021.2.3,MacIntel,66.66666667,611c77297d20cccefc24d80a,611e07ecdcc96256ae8d5b80,611e6ded028505af9a0773a4,
,,,,space,0.448,,0,309,309,317,1,C, , , , ,space,2000,2,Matt,001,2021-08-19_15h46.29,natb3,2021.2.3,MacIntel,66.66666667,611c77297d20cccefc24d80a,611e07ecdcc96256ae8d5b80,611e6ded028505af9a0773a4,
,,,,,,,0,310,310,12,1,X, , , , ,,1500,1.5,Matt,001,2021-08-19_15h46.29,natb3,2021.2.3,MacIntel,66.66666667,611c77297d20cccefc24d80a,611e07ecdcc96256ae8d5b80,611e6ded028505af9a0773a4,
,,,,space,0.54,,0,311,311,103,1,W, , , , ,space,2000,2,Matt,001,2021-08-19_15h46.29,natb3,2021.2.3,MacIntel,66.66666667,611c77297d20cccefc24d80a,611e07ecdcc96256ae8d5b80,611e6ded028505af9a0773a4,
,,,,,,,0,312,312,191,1,X,1, ,3,4,,2500,2.5,Matt,001,2021-08-19_15h46.29,natb3,2021.2.3,MacIntel,66.66666667,611c77297d20cccefc24d80a,611e07ecdcc96256ae8d5b80,611e6ded028505af9a0773a4,
,,,,space,0.43,,0,313,313,181,1,E, , , , ,space,1500,1.5,Matt,001,2021-08-19_15h46.29,natb3,2021.2.3,MacIntel,66.66666667,611c77297d20cccefc24d80a,611e07ecdcc96256ae8d5b80,611e6ded028505af9a0773a4,
,,,,space,0.603,,0,314,314,167,1,K, , , , ,space,1500,1.5,Matt,001,2021-08-19_15h46.29,natb3,2021.2.3,MacIntel,66.66666667,611c77297d20cccefc24d80a,611e07ecdcc96256ae8d5b80,611e6ded028505af9a0773a4,
,,,,space,0.396,,0,315,315,202,1,L, , , , ,space,2500,2.5,Matt,001,2021-08-19_15h46.29,natb3,2021.2.3,MacIntel,66.66666667,611c77297d20cccefc24d80a,611e07ecdcc96256ae8d5b80,611e6ded028505af9a0773a4,
,,,,,,,0,316,316,282,1,X, , , , ,,2500,2.5,Matt,001,2021-08-19_15h46.29,natb3,2021.2.3,MacIntel,66.66666667,611c77297d20cccefc24d80a,611e07ecdcc96256ae8d5b80,611e6ded028505af9a0773a4,
,,,,space,0.459,,0,317,317,275,1,G, , , , ,space,1500,1.5,Matt,001,2021-08-19_15h46.29,natb3,2021.2.3,MacIntel,66.66666667,611c77297d20cccefc24d80a,611e07ecdcc96256ae8d5b80,611e6ded028505af9a0773a4,
,,,,,,,0,318,318,325,1,X, , , , ,,2500,2.5,Matt,001,2021-08-19_15h46.29,natb3,2021.2.3,MacIntel,66.66666667,611c77297d20cccefc24d80a,611e07ecdcc96256ae8d5b80,611e6ded028505af9a0773a4,
,,,,space,0.385,,0,319,319,49,1,S, , , , ,space,1500,1.5,Matt,001,2021-08-19_15h46.29,natb3,2021.2.3,MacIntel,66.66666667,611c77297d20cccefc24d80a,611e07ecdcc96256ae8d5b80,611e6ded028505af9a0773a4,
,,,,space,0.392,,0,320,320,128,1,D, , , , ,space,2500,2.5,Matt,001,2021-08-19_15h46.29,natb3,2021.2.3,MacIntel,66.66666667,611c77297d20cccefc24d80a,611e07ecdcc96256ae8d5b80,611e6ded028505af9a0773a4,
,,,,space,0.541,,0,321,321,217,1,T, , , , ,space,2500,2.5,Matt,001,2021-08-19_15h46.29,natb3,2021.2.3,MacIntel,66.66666667,611c77297d20cccefc24d80a,611e07ecdcc96256ae8d5b80,611e6ded028505af9a0773a4,
,,,,,,,0,322,322,98,1,X, , , , ,,2500,2.5,Matt,001,2021-08-19_15h46.29,natb3,2021.2.3,MacIntel,66.66666667,611c77297d20cccefc24d80a,611e07ecdcc96256ae8d5b80,611e6ded028505af9a0773a4,
,,,,,,,0,323,323,42,1,U, , , , ,space,1500,1.5,Matt,001,2021-08-19_15h46.29,natb3,2021.2.3,MacIntel,66.66666667,611c77297d20cccefc24d80a,611e07ecdcc96256ae8d5b80,611e6ded028505af9a0773a4,
,,,,space,0.441,,0,324,324,63,1,B, , , , ,space,2000,2,Matt,001,2021-08-19_15h46.29,natb3,2021.2.3,MacIntel,66.66666667,611c77297d20cccefc24d80a,611e07ecdcc96256ae8d5b80,611e6ded028505af9a0773a4,
,,,,space,0.38,,0,325,325,180,1,W, , , , ,space,2000,2,Matt,001,2021-08-19_15h46.29,natb3,2021.2.3,MacIntel,66.66666667,611c77297d20cccefc24d80a,611e07ecdcc96256ae8d5b80,611e6ded028505af9a0773a4,
,,,,space,0.386,,0,326,326,319,1,V, , , , ,space,2000,2,Matt,001,2021-08-19_15h46.29,natb3,2021.2.3,MacIntel,66.66666667,611c77297d20cccefc24d80a,611e07ecdcc96256ae8d5b80,611e6ded028505af9a0773a4,
,,,,space,0.415,,0,327,327,6,1,Y, , , , ,space,2500,2.5,Matt,001,2021-08-19_15h46.29,natb3,2021.2.3,MacIntel,66.66666667,611c77297d20cccefc24d80a,611e07ecdcc96256ae8d5b80,611e6ded028505af9a0773a4,
,,,,space,0.584,,0,328,328,228,1,Y, , , , ,space,2000,2,Matt,001,2021-08-19_15h46.29,natb3,2021.2.3,MacIntel,66.66666667,611c77297d20cccefc24d80a,611e07ecdcc96256ae8d5b80,611e6ded028505af9a0773a4,
,,,,space,0.368,,0,329,329,257,1,W, , , , ,space,2000,2,Matt,001,2021-08-19_15h46.29,natb3,2021.2.3,MacIntel,66.66666667,611c77297d20cccefc24d80a,611e07ecdcc96256ae8d5b80,611e6ded028505af9a0773a4,
,,,,space,0.432,,0,330,330,62,1,V, , , , ,space,1500,1.5,Matt,001,2021-08-19_15h46.29,natb3,2021.2.3,MacIntel,66.66666667,611c77297d20cccefc24d80a,611e07ecdcc96256ae8d5b80,611e6ded028505af9a0773a4,
,,,,space,0.331,,0,331,331,64,1,N, , , , ,space,2000,2,Matt,001,2021-08-19_15h46.29,natb3,2021.2.3,MacIntel,66.66666667,611c77297d20cccefc24d80a,611e07ecdcc96256ae8d5b80,611e6ded028505af9a0773a4,
,,,,space,0.609,,0,332,332,174,1,B, , , , ,space,2500,2.5,Matt,001,2021-08-19_15h46.29,natb3,2021.2.3,MacIntel,66.66666667,611c77297d20cccefc24d80a,611e07ecdcc96256ae8d5b80,611e6ded028505af9a0773a4,
,,,,space,0.359,,0,333,333,91,1,L, , , , ,space,2000,2,Matt,001,2021-08-19_15h46.29,natb3,2021.2.3,MacIntel,66.66666667,611c77297d20cccefc24d80a,611e07ecdcc96256ae8d5b80,611e6ded028505af9a0773a4,
,,,,space,0.384,,0,334,334,177,1,M, , , , ,space,2500,2.5,Matt,001,2021-08-19_15h46.29,natb3,2021.2.3,MacIntel,66.66666667,611c77297d20cccefc24d80a,611e07ecdcc96256ae8d5b80,611e6ded028505af9a0773a4,
,,,,,,,0,335,335,195,1,X, , , , ,,1500,1.5,Matt,001,2021-08-19_15h46.29,natb3,2021.2.3,MacIntel,66.66666667,611c77297d20cccefc24d80a,611e07ecdcc96256ae8d5b80,611e6ded028505af9a0773a4,
