key_resp_2.keys,key_resp_2.rt,key_resp_3.keys,key_resp_3.rt,key_resp.keys,key_resp_4.keys,trials.thisRepN,trials.thisTrialN,trials.thisN,trials.thisIndex,trials.ran,stimulus,distractor1,distractor2,distractor3,distractor4,CorrAns,isi_duration,isi_dur_in_seconds,participant,session,date,expName,psychopyVersion,OS,frameRate,PROLIFIC_PID,STUDY_ID,SESSION_ID,key_resp.rt,key_resp_4.rt
return,13.231,space,15.2909,,,0,0,0,171,1,X, , , , ,,1500,1.5,,001,2021-08-19_16h48.54.616,natb3,2021.2.3,Win32,30.43491493,611d6fa7750a851746248607,611e07ecdcc96256ae8d5b80,611e7ce65c5dc916d69a7b9e,,
,,,,space,,0,1,1,83,1,D, , , , ,space,2000,2,,001,2021-08-19_16h48.54.616,natb3,2021.2.3,Win32,30.43491493,611d6fa7750a851746248607,611e07ecdcc96256ae8d5b80,611e7ce65c5dc916d69a7b9e,0.0212,
,,,,space,,0,2,2,172,1,C, , , , ,space,1500,1.5,,001,2021-08-19_16h48.54.616,natb3,2021.2.3,Win32,30.43491493,611d6fa7750a851746248607,611e07ecdcc96256ae8d5b80,611e7ce65c5dc916d69a7b9e,0.3425,
,,,,space,,0,3,3,127,1,S, , , , ,space,2500,2.5,,001,2021-08-19_16h48.54.616,natb3,2021.2.3,Win32,30.43491493,611d6fa7750a851746248607,611e07ecdcc96256ae8d5b80,611e7ce65c5dc916d69a7b9e,0.4939,
,,,,space,,0,4,4,242,1,H, , , , ,space,2500,2.5,,001,2021-08-19_16h48.54.616,natb3,2021.2.3,Win32,30.43491493,611d6fa7750a851746248607,611e07ecdcc96256ae8d5b80,611e7ce65c5dc916d69a7b9e,0.4703,
,,,,,,0,5,5,335,1,P,,,,,space,1500,1.5,,001,2021-08-19_16h48.54.616,natb3,2021.2.3,Win32,30.43491493,611d6fa7750a851746248607,611e07ecdcc96256ae8d5b80,611e7ce65c5dc916d69a7b9e,,
,,,,space,,0,6,6,50,1,D, , , , ,space,1500,1.5,,001,2021-08-19_16h48.54.616,natb3,2021.2.3,Win32,30.43491493,611d6fa7750a851746248607,611e07ecdcc96256ae8d5b80,611e7ce65c5dc916d69a7b9e,0.6849,
,,,,,,0,7,7,187,1,X, ,3,7,4,,1500,1.5,,001,2021-08-19_16h48.54.616,natb3,2021.2.3,Win32,30.43491493,611d6fa7750a851746248607,611e07ecdcc96256ae8d5b80,611e7ce65c5dc916d69a7b9e,,
,,,,space,,0,8,8,49,1,S, , , , ,space,1500,1.5,,001,2021-08-19_16h48.54.616,natb3,2021.2.3,Win32,30.43491493,611d6fa7750a851746248607,611e07ecdcc96256ae8d5b80,611e7ce65c5dc916d69a7b9e,0.6193,
,,,,,,0,9,9,96,1,X, , , , ,,1500,1.5,,001,2021-08-19_16h48.54.616,natb3,2021.2.3,Win32,30.43491493,611d6fa7750a851746248607,611e07ecdcc96256ae8d5b80,611e7ce65c5dc916d69a7b9e,,
,,,,space,,0,10,10,202,1,L, , , , ,space,2500,2.5,,001,2021-08-19_16h48.54.616,natb3,2021.2.3,Win32,30.43491493,611d6fa7750a851746248607,611e07ecdcc96256ae8d5b80,611e7ce65c5dc916d69a7b9e,0.3606,
,,,,space,,0,11,11,46,1,X, , , , ,,2000,2,,001,2021-08-19_16h48.54.616,natb3,2021.2.3,Win32,30.43491493,611d6fa7750a851746248607,611e07ecdcc96256ae8d5b80,611e7ce65c5dc916d69a7b9e,0.7476,
,,,,space,,0,12,12,280,1,L, , , , ,space,1500,1.5,,001,2021-08-19_16h48.54.616,natb3,2021.2.3,Win32,30.43491493,611d6fa7750a851746248607,611e07ecdcc96256ae8d5b80,611e7ce65c5dc916d69a7b9e,0.3838,
,,,,space,,0,13,13,270,1,S, , , , ,space,1500,1.5,,001,2021-08-19_16h48.54.616,natb3,2021.2.3,Win32,30.43491493,611d6fa7750a851746248607,611e07ecdcc96256ae8d5b80,611e7ce65c5dc916d69a7b9e,0.4302,
,,,,space,,0,14,14,64,1,N, , , , ,space,2000,2,,001,2021-08-19_16h48.54.616,natb3,2021.2.3,Win32,30.43491493,611d6fa7750a851746248607,611e07ecdcc96256ae8d5b80,611e7ce65c5dc916d69a7b9e,0.2924,
,,,,space,,0,15,15,281,1,Z, , , , ,space,1500,1.5,,001,2021-08-19_16h48.54.616,natb3,2021.2.3,Win32,30.43491493,611d6fa7750a851746248607,611e07ecdcc96256ae8d5b80,611e7ce65c5dc916d69a7b9e,0.3165,
,,,,space,,0,16,16,115,1,R, , , , ,space,1500,1.5,,001,2021-08-19_16h48.54.616,natb3,2021.2.3,Win32,30.43491493,611d6fa7750a851746248607,611e07ecdcc96256ae8d5b80,611e7ce65c5dc916d69a7b9e,0.6176,
,,,,space,,0,17,17,61,1,C, , , , ,space,2000,2,,001,2021-08-19_16h48.54.616,natb3,2021.2.3,Win32,30.43491493,611d6fa7750a851746248607,611e07ecdcc96256ae8d5b80,611e7ce65c5dc916d69a7b9e,0.4044,
,,,,,,0,18,18,166,1,X, , , , ,,2000,2,,001,2021-08-19_16h48.54.616,natb3,2021.2.3,Win32,30.43491493,611d6fa7750a851746248607,611e07ecdcc96256ae8d5b80,611e7ce65c5dc916d69a7b9e,,
,,,,,,0,19,19,133,1,X, ,4, ,6,,2500,2.5,,001,2021-08-19_16h48.54.616,natb3,2021.2.3,Win32,30.43491493,611d6fa7750a851746248607,611e07ecdcc96256ae8d5b80,611e7ce65c5dc916d69a7b9e,,
,,,,,,0,20,20,255,1,X, , , , ,,1500,1.5,,001,2021-08-19_16h48.54.616,natb3,2021.2.3,Win32,30.43491493,611d6fa7750a851746248607,611e07ecdcc96256ae8d5b80,611e7ce65c5dc916d69a7b9e,,
,,,,space,,0,21,21,260,1,R, , , , ,space,2000,2,,001,2021-08-19_16h48.54.616,natb3,2021.2.3,Win32,30.43491493,611d6fa7750a851746248607,611e07ecdcc96256ae8d5b80,611e7ce65c5dc916d69a7b9e,0.4925,
,,,,,,0,22,22,320,1,B, , , , ,space,1500,1.5,,001,2021-08-19_16h48.54.616,natb3,2021.2.3,Win32,30.43491493,611d6fa7750a851746248607,611e07ecdcc96256ae8d5b80,611e7ce65c5dc916d69a7b9e,,
,,,,,,0,23,23,29,1,B, , , , ,space,1500,1.5,,001,2021-08-19_16h48.54.616,natb3,2021.2.3,Win32,30.43491493,611d6fa7750a851746248607,611e07ecdcc96256ae8d5b80,611e7ce65c5dc916d69a7b9e,,
,,,,,,0,24,24,251,1,B, , , , ,space,1500,1.5,,001,2021-08-19_16h48.54.616,natb3,2021.2.3,Win32,30.43491493,611d6fa7750a851746248607,611e07ecdcc96256ae8d5b80,611e7ce65c5dc916d69a7b9e,,
,,,,,,0,25,25,184,1,T, , , , ,space,2000,2,,001,2021-08-19_16h48.54.616,natb3,2021.2.3,Win32,30.43491493,611d6fa7750a851746248607,611e07ecdcc96256ae8d5b80,611e7ce65c5dc916d69a7b9e,,
,,,,,,0,26,26,231,1,I, , , , ,space,2500,2.5,,001,2021-08-19_16h48.54.616,natb3,2021.2.3,Win32,30.43491493,611d6fa7750a851746248607,611e07ecdcc96256ae8d5b80,611e7ce65c5dc916d69a7b9e,,
,,,,,,0,27,27,214,1,W, , , , ,space,2000,2,,001,2021-08-19_16h48.54.616,natb3,2021.2.3,Win32,30.43491493,611d6fa7750a851746248607,611e07ecdcc96256ae8d5b80,611e7ce65c5dc916d69a7b9e,,
,,,,,,0,28,28,239,1,X, , , , ,,2000,2,,001,2021-08-19_16h48.54.616,natb3,2021.2.3,Win32,30.43491493,611d6fa7750a851746248607,611e07ecdcc96256ae8d5b80,611e7ce65c5dc916d69a7b9e,,
,,,,space,,0,29,29,234,1,P, , , , ,space,2000,2,,001,2021-08-19_16h48.54.616,natb3,2021.2.3,Win32,30.43491493,611d6fa7750a851746248607,611e07ecdcc96256ae8d5b80,611e7ce65c5dc916d69a7b9e,0.3201,
,,,,space,,0,30,30,102,1,X, ,6, , ,,1500,1.5,,001,2021-08-19_16h48.54.616,natb3,2021.2.3,Win32,30.43491493,611d6fa7750a851746248607,611e07ecdcc96256ae8d5b80,611e7ce65c5dc916d69a7b9e,0.5578,
,,,,,,0,31,31,210,1,M, , , , ,space,1500,1.5,,001,2021-08-19_16h48.54.616,natb3,2021.2.3,Win32,30.43491493,611d6fa7750a851746248607,611e07ecdcc96256ae8d5b80,611e7ce65c5dc916d69a7b9e,,
,,,,,,0,32,32,325,1,X, , , , ,,2500,2.5,,001,2021-08-19_16h48.54.616,natb3,2021.2.3,Win32,30.43491493,611d6fa7750a851746248607,611e07ecdcc96256ae8d5b80,611e7ce65c5dc916d69a7b9e,,
,,,,,,0,33,33,263,1,X,4, ,6, ,,1500,1.5,,001,2021-08-19_16h48.54.616,natb3,2021.2.3,Win32,30.43491493,611d6fa7750a851746248607,611e07ecdcc96256ae8d5b80,611e7ce65c5dc916d69a7b9e,,
,,,,space,,0,34,34,292,1,E, , , , ,space,2000,2,,001,2021-08-19_16h48.54.616,natb3,2021.2.3,Win32,30.43491493,611d6fa7750a851746248607,611e07ecdcc96256ae8d5b80,611e7ce65c5dc916d69a7b9e,0.513,
,,,,,,0,35,35,178,1,Q, , , , ,space,1500,1.5,,001,2021-08-19_16h48.54.616,natb3,2021.2.3,Win32,30.43491493,611d6fa7750a851746248607,611e07ecdcc96256ae8d5b80,611e7ce65c5dc916d69a7b9e,,
,,,,space,,0,36,36,332,1,U, , , , ,space,2000,2,,001,2021-08-19_16h48.54.616,natb3,2021.2.3,Win32,30.43491493,611d6fa7750a851746248607,611e07ecdcc96256ae8d5b80,611e7ce65c5dc916d69a7b9e,0.5392,
,,,,,,0,37,37,57,1,K, , , , ,space,2500,2.5,,001,2021-08-19_16h48.54.616,natb3,2021.2.3,Win32,30.43491493,611d6fa7750a851746248607,611e07ecdcc96256ae8d5b80,611e7ce65c5dc916d69a7b9e,,
,,,,space,,0,38,38,297,1,U, , , , ,space,2000,2,,001,2021-08-19_16h48.54.616,natb3,2021.2.3,Win32,30.43491493,611d6fa7750a851746248607,611e07ecdcc96256ae8d5b80,611e7ce65c5dc916d69a7b9e,0.5202,
,,,,space,,0,39,39,44,1,I, , , , ,space,2500,2.5,,001,2021-08-19_16h48.54.616,natb3,2021.2.3,Win32,30.43491493,611d6fa7750a851746248607,611e07ecdcc96256ae8d5b80,611e7ce65c5dc916d69a7b9e,0.4148,
,,,,space,,0,40,40,43,1,X, ,6, ,2,,2500,2.5,,001,2021-08-19_16h48.54.616,natb3,2021.2.3,Win32,30.43491493,611d6fa7750a851746248607,611e07ecdcc96256ae8d5b80,611e7ce65c5dc916d69a7b9e,0.4432,
,,,,space,,0,41,41,21,1,J, , , , ,space,1500,1.5,,001,2021-08-19_16h48.54.616,natb3,2021.2.3,Win32,30.43491493,611d6fa7750a851746248607,611e07ecdcc96256ae8d5b80,611e7ce65c5dc916d69a7b9e,0.7661,
,,,,space,,0,42,42,327,1,E, , , , ,space,1500,1.5,,001,2021-08-19_16h48.54.616,natb3,2021.2.3,Win32,30.43491493,611d6fa7750a851746248607,611e07ecdcc96256ae8d5b80,611e7ce65c5dc916d69a7b9e,0.4928,
,,,,space,,0,43,43,272,1,D, , , , ,space,2000,2,,001,2021-08-19_16h48.54.616,natb3,2021.2.3,Win32,30.43491493,611d6fa7750a851746248607,611e07ecdcc96256ae8d5b80,611e7ce65c5dc916d69a7b9e,0.4556,
,,,,space,,0,44,44,167,1,K, , , , ,space,1500,1.5,,001,2021-08-19_16h48.54.616,natb3,2021.2.3,Win32,30.43491493,611d6fa7750a851746248607,611e07ecdcc96256ae8d5b80,611e7ce65c5dc916d69a7b9e,0.6027,
,,,,space,,0,45,45,301,1,P, , , , ,space,1500,1.5,,001,2021-08-19_16h48.54.616,natb3,2021.2.3,Win32,30.43491493,611d6fa7750a851746248607,611e07ecdcc96256ae8d5b80,611e7ce65c5dc916d69a7b9e,0.3689,
,,,,space,,0,46,46,157,1,A, , , , ,space,2500,2.5,,001,2021-08-19_16h48.54.616,natb3,2021.2.3,Win32,30.43491493,611d6fa7750a851746248607,611e07ecdcc96256ae8d5b80,611e7ce65c5dc916d69a7b9e,0.4637,
,,,,space,,0,47,47,81,1,S, , , , ,space,2000,2,,001,2021-08-19_16h48.54.616,natb3,2021.2.3,Win32,30.43491493,611d6fa7750a851746248607,611e07ecdcc96256ae8d5b80,611e7ce65c5dc916d69a7b9e,0.394,
,,,,space,,0,48,48,10,1,O, , , , ,space,2000,2,,001,2021-08-19_16h48.54.616,natb3,2021.2.3,Win32,30.43491493,611d6fa7750a851746248607,611e07ecdcc96256ae8d5b80,611e7ce65c5dc916d69a7b9e,0.5086,
,,,,,,0,49,49,27,1,X,5, ,1,3,,1500,1.5,,001,2021-08-19_16h48.54.616,natb3,2021.2.3,Win32,30.43491493,611d6fa7750a851746248607,611e07ecdcc96256ae8d5b80,611e7ce65c5dc916d69a7b9e,,
,,,,space,,0,50,50,174,1,B, , , , ,space,2500,2.5,,001,2021-08-19_16h48.54.616,natb3,2021.2.3,Win32,30.43491493,611d6fa7750a851746248607,611e07ecdcc96256ae8d5b80,611e7ce65c5dc916d69a7b9e,0.4303,
,,,,space,,0,51,51,253,1,N, , , , ,space,2500,2.5,,001,2021-08-19_16h48.54.616,natb3,2021.2.3,Win32,30.43491493,611d6fa7750a851746248607,611e07ecdcc96256ae8d5b80,611e7ce65c5dc916d69a7b9e,0.3568,
,,,,,,0,52,52,153,1,X,4,7, ,6,,2000,2,,001,2021-08-19_16h48.54.616,natb3,2021.2.3,Win32,30.43491493,611d6fa7750a851746248607,611e07ecdcc96256ae8d5b80,611e7ce65c5dc916d69a7b9e,,
,,,,space,,0,53,53,30,1,N, , , , ,space,2500,2.5,,001,2021-08-19_16h48.54.616,natb3,2021.2.3,Win32,30.43491493,611d6fa7750a851746248607,611e07ecdcc96256ae8d5b80,611e7ce65c5dc916d69a7b9e,0.3489,
,,,,,,0,54,54,122,1,X,1, , ,8,,1500,1.5,,001,2021-08-19_16h48.54.616,natb3,2021.2.3,Win32,30.43491493,611d6fa7750a851746248607,611e07ecdcc96256ae8d5b80,611e7ce65c5dc916d69a7b9e,,
,,,,space,,0,55,55,75,1,U, , , , ,space,1500,1.5,,001,2021-08-19_16h48.54.616,natb3,2021.2.3,Win32,30.43491493,611d6fa7750a851746248607,611e07ecdcc96256ae8d5b80,611e7ce65c5dc916d69a7b9e,0.5363,
,,,,space,,0,56,56,194,1,D, , , , ,space,2000,2,,001,2021-08-19_16h48.54.616,natb3,2021.2.3,Win32,30.43491493,611d6fa7750a851746248607,611e07ecdcc96256ae8d5b80,611e7ce65c5dc916d69a7b9e,0.5315,
,,,,space,,0,57,57,137,1,C, , , , ,space,2500,2.5,,001,2021-08-19_16h48.54.616,natb3,2021.2.3,Win32,30.43491493,611d6fa7750a851746248607,611e07ecdcc96256ae8d5b80,611e7ce65c5dc916d69a7b9e,0.5479,
,,,,space,,0,58,58,32,1,M, , , , ,space,1500,1.5,,001,2021-08-19_16h48.54.616,natb3,2021.2.3,Win32,30.43491493,611d6fa7750a851746248607,611e07ecdcc96256ae8d5b80,611e7ce65c5dc916d69a7b9e,0.4455,
,,,,space,,0,59,59,31,1,X, , , , ,,1500,1.5,,001,2021-08-19_16h48.54.616,natb3,2021.2.3,Win32,30.43491493,611d6fa7750a851746248607,611e07ecdcc96256ae8d5b80,611e7ce65c5dc916d69a7b9e,0.4265,
,,,,space,,0,60,60,181,1,E, , , , ,space,1500,1.5,,001,2021-08-19_16h48.54.616,natb3,2021.2.3,Win32,30.43491493,611d6fa7750a851746248607,611e07ecdcc96256ae8d5b80,611e7ce65c5dc916d69a7b9e,0.7424,
,,,,space,,0,61,61,38,1,R, , , , ,space,2500,2.5,,001,2021-08-19_16h48.54.616,natb3,2021.2.3,Win32,30.43491493,611d6fa7750a851746248607,611e07ecdcc96256ae8d5b80,611e7ce65c5dc916d69a7b9e,0.3997,
,,,,space,,0,62,62,119,1,Y, , , , ,space,2500,2.5,,001,2021-08-19_16h48.54.616,natb3,2021.2.3,Win32,30.43491493,611d6fa7750a851746248607,611e07ecdcc96256ae8d5b80,611e7ce65c5dc916d69a7b9e,0.7979,
,,,,,,0,63,63,148,1,X, , , , ,,2000,2,,001,2021-08-19_16h48.54.616,natb3,2021.2.3,Win32,30.43491493,611d6fa7750a851746248607,611e07ecdcc96256ae8d5b80,611e7ce65c5dc916d69a7b9e,,
,,,,space,,0,64,64,67,1,Q, , , , ,space,2000,2,,001,2021-08-19_16h48.54.616,natb3,2021.2.3,Win32,30.43491493,611d6fa7750a851746248607,611e07ecdcc96256ae8d5b80,611e7ce65c5dc916d69a7b9e,0.7655,
,,,,space,,0,65,65,282,1,X, , , , ,,2500,2.5,,001,2021-08-19_16h48.54.616,natb3,2021.2.3,Win32,30.43491493,611d6fa7750a851746248607,611e07ecdcc96256ae8d5b80,611e7ce65c5dc916d69a7b9e,0.3383,
,,,,,,0,66,66,139,1,V, , , , ,space,2000,2,,001,2021-08-19_16h48.54.616,natb3,2021.2.3,Win32,30.43491493,611d6fa7750a851746248607,611e07ecdcc96256ae8d5b80,611e7ce65c5dc916d69a7b9e,,
,,,,,,0,67,67,95,1,V, , , , ,space,1500,1.5,,001,2021-08-19_16h48.54.616,natb3,2021.2.3,Win32,30.43491493,611d6fa7750a851746248607,611e07ecdcc96256ae8d5b80,611e7ce65c5dc916d69a7b9e,,
,,,,space,,0,68,68,85,1,F, , , , ,space,2500,2.5,,001,2021-08-19_16h48.54.616,natb3,2021.2.3,Win32,30.43491493,611d6fa7750a851746248607,611e07ecdcc96256ae8d5b80,611e7ce65c5dc916d69a7b9e,0.5836,
,,,,space,,0,69,69,173,1,V, , , , ,space,1500,1.5,,001,2021-08-19_16h48.54.616,natb3,2021.2.3,Win32,30.43491493,611d6fa7750a851746248607,611e07ecdcc96256ae8d5b80,611e7ce65c5dc916d69a7b9e,0.424,
,,,,space,,0,70,70,220,1,U, , , , ,space,2500,2.5,,001,2021-08-19_16h48.54.616,natb3,2021.2.3,Win32,30.43491493,611d6fa7750a851746248607,611e07ecdcc96256ae8d5b80,611e7ce65c5dc916d69a7b9e,0.4417,
,,,,,,0,71,71,330,1,T, , , , ,space,2500,2.5,,001,2021-08-19_16h48.54.616,natb3,2021.2.3,Win32,30.43491493,611d6fa7750a851746248607,611e07ecdcc96256ae8d5b80,611e7ce65c5dc916d69a7b9e,,
,,,,space,,0,72,72,164,1,H, , , , ,space,2500,2.5,,001,2021-08-19_16h48.54.616,natb3,2021.2.3,Win32,30.43491493,611d6fa7750a851746248607,611e07ecdcc96256ae8d5b80,611e7ce65c5dc916d69a7b9e,0.4506,
,,,,space,,0,73,73,77,1,O, , , , ,space,2000,2,,001,2021-08-19_16h48.54.616,natb3,2021.2.3,Win32,30.43491493,611d6fa7750a851746248607,611e07ecdcc96256ae8d5b80,611e7ce65c5dc916d69a7b9e,0.5217,
,,,,space,,0,74,74,283,1,C, , , , ,space,1500,1.5,,001,2021-08-19_16h48.54.616,natb3,2021.2.3,Win32,30.43491493,611d6fa7750a851746248607,611e07ecdcc96256ae8d5b80,611e7ce65c5dc916d69a7b9e,0.611,
,,,,space,,0,75,75,116,1,X, , , , ,,2000,2,,001,2021-08-19_16h48.54.616,natb3,2021.2.3,Win32,30.43491493,611d6fa7750a851746248607,611e07ecdcc96256ae8d5b80,611e7ce65c5dc916d69a7b9e,0.4484,
,,,,space,,0,76,76,101,1,Q, , , , ,space,2500,2.5,,001,2021-08-19_16h48.54.616,natb3,2021.2.3,Win32,30.43491493,611d6fa7750a851746248607,611e07ecdcc96256ae8d5b80,611e7ce65c5dc916d69a7b9e,0.5026,
,,,,space,,0,77,77,323,1,M, , , , ,space,2500,2.5,,001,2021-08-19_16h48.54.616,natb3,2021.2.3,Win32,30.43491493,611d6fa7750a851746248607,611e07ecdcc96256ae8d5b80,611e7ce65c5dc916d69a7b9e,0.4592,
,,,,space,,0,78,78,111,1,O, , , , ,space,2000,2,,001,2021-08-19_16h48.54.616,natb3,2021.2.3,Win32,30.43491493,611d6fa7750a851746248607,611e07ecdcc96256ae8d5b80,611e7ce65c5dc916d69a7b9e,0.5022,
,,,,space,,0,79,79,262,1,Y, , , , ,space,2500,2.5,,001,2021-08-19_16h48.54.616,natb3,2021.2.3,Win32,30.43491493,611d6fa7750a851746248607,611e07ecdcc96256ae8d5b80,611e7ce65c5dc916d69a7b9e,0.5151,
,,,,space,,0,80,80,273,1,X, , , , ,,2000,2,,001,2021-08-19_16h48.54.616,natb3,2021.2.3,Win32,30.43491493,611d6fa7750a851746248607,611e07ecdcc96256ae8d5b80,611e7ce65c5dc916d69a7b9e,0.554,
,,,,,,0,81,81,256,1,Q, , , , ,space,2000,2,,001,2021-08-19_16h48.54.616,natb3,2021.2.3,Win32,30.43491493,611d6fa7750a851746248607,611e07ecdcc96256ae8d5b80,611e7ce65c5dc916d69a7b9e,,
,,,,,,0,82,82,298,1,I, , , , ,space,2000,2,,001,2021-08-19_16h48.54.616,natb3,2021.2.3,Win32,30.43491493,611d6fa7750a851746248607,611e07ecdcc96256ae8d5b80,611e7ce65c5dc916d69a7b9e,,
,,,,space,,0,83,83,68,1,W, , , , ,space,2500,2.5,,001,2021-08-19_16h48.54.616,natb3,2021.2.3,Win32,30.43491493,611d6fa7750a851746248607,611e07ecdcc96256ae8d5b80,611e7ce65c5dc916d69a7b9e,0.4201,
,,,,,,0,84,84,219,1,Y, , , , ,space,2000,2,,001,2021-08-19_16h48.54.616,natb3,2021.2.3,Win32,30.43491493,611d6fa7750a851746248607,611e07ecdcc96256ae8d5b80,611e7ce65c5dc916d69a7b9e,,
,,,,,,0,85,85,160,1,D, , , , ,space,1500,1.5,,001,2021-08-19_16h48.54.616,natb3,2021.2.3,Win32,30.43491493,611d6fa7750a851746248607,611e07ecdcc96256ae8d5b80,611e7ce65c5dc916d69a7b9e,,
,,,,space,,0,86,86,275,1,G, , , , ,space,1500,1.5,,001,2021-08-19_16h48.54.616,natb3,2021.2.3,Win32,30.43491493,611d6fa7750a851746248607,611e07ecdcc96256ae8d5b80,611e7ce65c5dc916d69a7b9e,0.6525,
,,,,space,,0,87,87,306,1,D, , , , ,space,2000,2,,001,2021-08-19_16h48.54.616,natb3,2021.2.3,Win32,30.43491493,611d6fa7750a851746248607,611e07ecdcc96256ae8d5b80,611e7ce65c5dc916d69a7b9e,0.9345,
,,,,space,,0,88,88,4,1,X, , , , ,,2000,2,,001,2021-08-19_16h48.54.616,natb3,2021.2.3,Win32,30.43491493,611d6fa7750a851746248607,611e07ecdcc96256ae8d5b80,611e7ce65c5dc916d69a7b9e,0.4825,
,,,,,,0,89,89,294,1,T, , , , ,space,2000,2,,001,2021-08-19_16h48.54.616,natb3,2021.2.3,Win32,30.43491493,611d6fa7750a851746248607,611e07ecdcc96256ae8d5b80,611e7ce65c5dc916d69a7b9e,,
,,,,space,,0,90,90,8,1,U, , , , ,space,1500,1.5,,001,2021-08-19_16h48.54.616,natb3,2021.2.3,Win32,30.43491493,611d6fa7750a851746248607,611e07ecdcc96256ae8d5b80,611e7ce65c5dc916d69a7b9e,0.414,
,,,,space,,0,91,91,26,1,C, , , , ,space,2000,2,,001,2021-08-19_16h48.54.616,natb3,2021.2.3,Win32,30.43491493,611d6fa7750a851746248607,611e07ecdcc96256ae8d5b80,611e7ce65c5dc916d69a7b9e,0.4242,
,,,,space,,0,92,92,318,1,X, , , , ,,1500,1.5,,001,2021-08-19_16h48.54.616,natb3,2021.2.3,Win32,30.43491493,611d6fa7750a851746248607,611e07ecdcc96256ae8d5b80,611e7ce65c5dc916d69a7b9e,0.4038,
,,,,space,,0,93,93,69,1,X, , , , ,,1500,1.5,,001,2021-08-19_16h48.54.616,natb3,2021.2.3,Win32,30.43491493,611d6fa7750a851746248607,611e07ecdcc96256ae8d5b80,611e7ce65c5dc916d69a7b9e,0.8988,
,,,,space,,0,94,94,199,1,J, , , , ,space,2500,2.5,,001,2021-08-19_16h48.54.616,natb3,2021.2.3,Win32,30.43491493,611d6fa7750a851746248607,611e07ecdcc96256ae8d5b80,611e7ce65c5dc916d69a7b9e,0.4444,
,,,,space,,0,95,95,183,1,R, , , , ,space,1500,1.5,,001,2021-08-19_16h48.54.616,natb3,2021.2.3,Win32,30.43491493,611d6fa7750a851746248607,611e07ecdcc96256ae8d5b80,611e7ce65c5dc916d69a7b9e,0.5626,
,,,,space,,0,96,96,20,1,H, , , , ,space,1500,1.5,,001,2021-08-19_16h48.54.616,natb3,2021.2.3,Win32,30.43491493,611d6fa7750a851746248607,611e07ecdcc96256ae8d5b80,611e7ce65c5dc916d69a7b9e,0.5127,
,,,,space,,0,97,97,123,1,O, , , , ,space,1500,1.5,,001,2021-08-19_16h48.54.616,natb3,2021.2.3,Win32,30.43491493,611d6fa7750a851746248607,611e07ecdcc96256ae8d5b80,611e7ce65c5dc916d69a7b9e,0.5363,
,,,,,,0,98,98,232,1,O, , , , ,space,2500,2.5,,001,2021-08-19_16h48.54.616,natb3,2021.2.3,Win32,30.43491493,611d6fa7750a851746248607,611e07ecdcc96256ae8d5b80,611e7ce65c5dc916d69a7b9e,,
,,,,,,0,99,99,208,1,B, , , , ,space,1500,1.5,,001,2021-08-19_16h48.54.616,natb3,2021.2.3,Win32,30.43491493,611d6fa7750a851746248607,611e07ecdcc96256ae8d5b80,611e7ce65c5dc916d69a7b9e,,
,,,,space,,0,100,100,136,1,Z, , , , ,space,2500,2.5,,001,2021-08-19_16h48.54.616,natb3,2021.2.3,Win32,30.43491493,611d6fa7750a851746248607,611e07ecdcc96256ae8d5b80,611e7ce65c5dc916d69a7b9e,0.639,
,,,,,,0,101,101,310,1,J, , , , ,space,2500,2.5,,001,2021-08-19_16h48.54.616,natb3,2021.2.3,Win32,30.43491493,611d6fa7750a851746248607,611e07ecdcc96256ae8d5b80,611e7ce65c5dc916d69a7b9e,,
,,,,,,0,102,102,15,1,X, , , , ,,1500,1.5,,001,2021-08-19_16h48.54.616,natb3,2021.2.3,Win32,30.43491493,611d6fa7750a851746248607,611e07ecdcc96256ae8d5b80,611e7ce65c5dc916d69a7b9e,,
,,,,space,,0,103,103,278,1,J, , , , ,space,2000,2,,001,2021-08-19_16h48.54.616,natb3,2021.2.3,Win32,30.43491493,611d6fa7750a851746248607,611e07ecdcc96256ae8d5b80,611e7ce65c5dc916d69a7b9e,0.8097,
,,,,,,0,104,104,315,1,X, , , , ,,2500,2.5,,001,2021-08-19_16h48.54.616,natb3,2021.2.3,Win32,30.43491493,611d6fa7750a851746248607,611e07ecdcc96256ae8d5b80,611e7ce65c5dc916d69a7b9e,,
,,,,space,,0,105,105,185,1,Y, , , , ,space,2500,2.5,,001,2021-08-19_16h48.54.616,natb3,2021.2.3,Win32,30.43491493,611d6fa7750a851746248607,611e07ecdcc96256ae8d5b80,611e7ce65c5dc916d69a7b9e,0.7908,
,,,,space,,0,106,106,144,1,Q, , , , ,space,2500,2.5,,001,2021-08-19_16h48.54.616,natb3,2021.2.3,Win32,30.43491493,611d6fa7750a851746248607,611e07ecdcc96256ae8d5b80,611e7ce65c5dc916d69a7b9e,0.6888,
,,,,,,0,107,107,213,1,X, , , , ,,2500,2.5,,001,2021-08-19_16h48.54.616,natb3,2021.2.3,Win32,30.43491493,611d6fa7750a851746248607,611e07ecdcc96256ae8d5b80,611e7ce65c5dc916d69a7b9e,,
,,,,space,,0,108,108,73,1,Y, , , , ,space,2000,2,,001,2021-08-19_16h48.54.616,natb3,2021.2.3,Win32,30.43491493,611d6fa7750a851746248607,611e07ecdcc96256ae8d5b80,611e7ce65c5dc916d69a7b9e,0.8948,
,,,,space,,0,109,109,240,1,F, , , , ,space,2500,2.5,,001,2021-08-19_16h48.54.616,natb3,2021.2.3,Win32,30.43491493,611d6fa7750a851746248607,611e07ecdcc96256ae8d5b80,611e7ce65c5dc916d69a7b9e,0.8145,
,,,,space,,0,110,110,215,1,E, , , , ,space,2500,2.5,,001,2021-08-19_16h48.54.616,natb3,2021.2.3,Win32,30.43491493,611d6fa7750a851746248607,611e07ecdcc96256ae8d5b80,611e7ce65c5dc916d69a7b9e,0.6666,
,,,,space,,0,111,111,317,1,C, , , , ,space,2000,2,,001,2021-08-19_16h48.54.616,natb3,2021.2.3,Win32,30.43491493,611d6fa7750a851746248607,611e07ecdcc96256ae8d5b80,611e7ce65c5dc916d69a7b9e,0.429,
,,,,space,,0,112,112,222,1,O, , , , ,space,2000,2,,001,2021-08-19_16h48.54.616,natb3,2021.2.3,Win32,30.43491493,611d6fa7750a851746248607,611e07ecdcc96256ae8d5b80,611e7ce65c5dc916d69a7b9e,0.4117,
,,,,space,,0,113,113,158,1,X, , , , ,,1500,1.5,,001,2021-08-19_16h48.54.616,natb3,2021.2.3,Win32,30.43491493,611d6fa7750a851746248607,611e07ecdcc96256ae8d5b80,611e7ce65c5dc916d69a7b9e,0.6455,
,,,,space,,0,114,114,286,1,N, , , , ,space,1500,1.5,,001,2021-08-19_16h48.54.616,natb3,2021.2.3,Win32,30.43491493,611d6fa7750a851746248607,611e07ecdcc96256ae8d5b80,611e7ce65c5dc916d69a7b9e,0.4623,
,,,,,,0,115,115,179,1,X, ,9, ,2,,1500,1.5,,001,2021-08-19_16h48.54.616,natb3,2021.2.3,Win32,30.43491493,611d6fa7750a851746248607,611e07ecdcc96256ae8d5b80,611e7ce65c5dc916d69a7b9e,,
,,,,space,,0,116,116,312,1,K, , , , ,space,2000,2,,001,2021-08-19_16h48.54.616,natb3,2021.2.3,Win32,30.43491493,611d6fa7750a851746248607,611e07ecdcc96256ae8d5b80,611e7ce65c5dc916d69a7b9e,0.4843,
,,,,space,,0,117,117,2,1,E, , , , ,space,2500,2.5,,001,2021-08-19_16h48.54.616,natb3,2021.2.3,Win32,30.43491493,611d6fa7750a851746248607,611e07ecdcc96256ae8d5b80,611e7ce65c5dc916d69a7b9e,0.5654,
,,,,,,0,118,118,229,1,X,8, ,2,6,,2500,2.5,,001,2021-08-19_16h48.54.616,natb3,2021.2.3,Win32,30.43491493,611d6fa7750a851746248607,611e07ecdcc96256ae8d5b80,611e7ce65c5dc916d69a7b9e,,
,,,,space,,0,119,119,90,1,K, , , , ,space,2000,2,,001,2021-08-19_16h48.54.616,natb3,2021.2.3,Win32,30.43491493,611d6fa7750a851746248607,611e07ecdcc96256ae8d5b80,611e7ce65c5dc916d69a7b9e,0.6001,
,,,,,,0,120,120,313,1,X, , , , ,,2500,2.5,,001,2021-08-19_16h48.54.616,natb3,2021.2.3,Win32,30.43491493,611d6fa7750a851746248607,611e07ecdcc96256ae8d5b80,611e7ce65c5dc916d69a7b9e,,
,,,,space,,0,121,121,288,1,M, , , , ,space,1500,1.5,,001,2021-08-19_16h48.54.616,natb3,2021.2.3,Win32,30.43491493,611d6fa7750a851746248607,611e07ecdcc96256ae8d5b80,611e7ce65c5dc916d69a7b9e,0.4668,
,,,,space,,0,122,122,28,1,V, , , , ,space,1500,1.5,,001,2021-08-19_16h48.54.616,natb3,2021.2.3,Win32,30.43491493,611d6fa7750a851746248607,611e07ecdcc96256ae8d5b80,611e7ce65c5dc916d69a7b9e,0.5962,
,,,,space,,0,123,123,134,1,J, , , , ,space,2000,2,,001,2021-08-19_16h48.54.616,natb3,2021.2.3,Win32,30.43491493,611d6fa7750a851746248607,611e07ecdcc96256ae8d5b80,611e7ce65c5dc916d69a7b9e,0.5594,
,,,,space,,0,124,124,192,1,A, , , , ,space,2000,2,,001,2021-08-19_16h48.54.616,natb3,2021.2.3,Win32,30.43491493,611d6fa7750a851746248607,611e07ecdcc96256ae8d5b80,611e7ce65c5dc916d69a7b9e,0.6381,
,,,,space,,0,125,125,238,1,D, , , , ,space,1500,1.5,,001,2021-08-19_16h48.54.616,natb3,2021.2.3,Win32,30.43491493,611d6fa7750a851746248607,611e07ecdcc96256ae8d5b80,611e7ce65c5dc916d69a7b9e,0.6214,
,,,,,,0,126,126,82,1,X,4,6,1,7,,2000,2,,001,2021-08-19_16h48.54.616,natb3,2021.2.3,Win32,30.43491493,611d6fa7750a851746248607,611e07ecdcc96256ae8d5b80,611e7ce65c5dc916d69a7b9e,,
,,,,space,,0,127,127,156,1,P, , , , ,space,1500,1.5,,001,2021-08-19_16h48.54.616,natb3,2021.2.3,Win32,30.43491493,611d6fa7750a851746248607,611e07ecdcc96256ae8d5b80,611e7ce65c5dc916d69a7b9e,0.589,
,,,,space,,0,128,128,155,1,O, , , , ,space,1500,1.5,,001,2021-08-19_16h48.54.616,natb3,2021.2.3,Win32,30.43491493,611d6fa7750a851746248607,611e07ecdcc96256ae8d5b80,611e7ce65c5dc916d69a7b9e,0.6583,
,,,,space,,0,129,129,205,1,C, , , , ,space,2000,2,,001,2021-08-19_16h48.54.616,natb3,2021.2.3,Win32,30.43491493,611d6fa7750a851746248607,611e07ecdcc96256ae8d5b80,611e7ce65c5dc916d69a7b9e,0.7487,
,,,,,,0,130,130,18,1,X, ,2,5,8,,2500,2.5,,001,2021-08-19_16h48.54.616,natb3,2021.2.3,Win32,30.43491493,611d6fa7750a851746248607,611e07ecdcc96256ae8d5b80,611e7ce65c5dc916d69a7b9e,,
,,,,,,0,131,131,59,1,Z, , , , ,space,2000,2,,001,2021-08-19_16h48.54.616,natb3,2021.2.3,Win32,30.43491493,611d6fa7750a851746248607,611e07ecdcc96256ae8d5b80,611e7ce65c5dc916d69a7b9e,,
,,,,,,0,132,132,316,1,Z, , , , ,space,1500,1.5,,001,2021-08-19_16h48.54.616,natb3,2021.2.3,Win32,30.43491493,611d6fa7750a851746248607,611e07ecdcc96256ae8d5b80,611e7ce65c5dc916d69a7b9e,,
,,,,space,,0,133,133,88,1,J, , , , ,space,2500,2.5,,001,2021-08-19_16h48.54.616,natb3,2021.2.3,Win32,30.43491493,611d6fa7750a851746248607,611e07ecdcc96256ae8d5b80,611e7ce65c5dc916d69a7b9e,0.6535,
,,,,,,0,134,134,33,1,X, , , , ,,1500,1.5,,001,2021-08-19_16h48.54.616,natb3,2021.2.3,Win32,30.43491493,611d6fa7750a851746248607,611e07ecdcc96256ae8d5b80,611e7ce65c5dc916d69a7b9e,,
,,,,space,,0,135,135,128,1,D, , , , ,space,2500,2.5,,001,2021-08-19_16h48.54.616,natb3,2021.2.3,Win32,30.43491493,611d6fa7750a851746248607,611e07ecdcc96256ae8d5b80,611e7ce65c5dc916d69a7b9e,0.4845,
,,,,space,,0,136,136,152,1,U, , , , ,space,2000,2,,001,2021-08-19_16h48.54.616,natb3,2021.2.3,Win32,30.43491493,611d6fa7750a851746248607,611e07ecdcc96256ae8d5b80,611e7ce65c5dc916d69a7b9e,0.5457,
,,,,space,,0,137,137,36,1,W, , , , ,space,2000,2,,001,2021-08-19_16h48.54.616,natb3,2021.2.3,Win32,30.43491493,611d6fa7750a851746248607,611e07ecdcc96256ae8d5b80,611e7ce65c5dc916d69a7b9e,0.5994,
,,,,space,,0,138,138,196,1,F, , , , ,space,1500,1.5,,001,2021-08-19_16h48.54.616,natb3,2021.2.3,Win32,30.43491493,611d6fa7750a851746248607,611e07ecdcc96256ae8d5b80,611e7ce65c5dc916d69a7b9e,0.4942,
,,,,space,,0,139,139,228,1,Y, , , , ,space,2000,2,,001,2021-08-19_16h48.54.616,natb3,2021.2.3,Win32,30.43491493,611d6fa7750a851746248607,611e07ecdcc96256ae8d5b80,611e7ce65c5dc916d69a7b9e,0.6073,
,,,,,,0,140,140,78,1,X, , , , ,,2000,2,,001,2021-08-19_16h48.54.616,natb3,2021.2.3,Win32,30.43491493,611d6fa7750a851746248607,611e07ecdcc96256ae8d5b80,611e7ce65c5dc916d69a7b9e,,
,,,,,,0,141,141,135,1,K, , , , ,space,1500,1.5,,001,2021-08-19_16h48.54.616,natb3,2021.2.3,Win32,30.43491493,611d6fa7750a851746248607,611e07ecdcc96256ae8d5b80,611e7ce65c5dc916d69a7b9e,,
,,,,,,0,142,142,218,1,X,1,3, ,8,,1500,1.5,,001,2021-08-19_16h48.54.616,natb3,2021.2.3,Win32,30.43491493,611d6fa7750a851746248607,611e07ecdcc96256ae8d5b80,611e7ce65c5dc916d69a7b9e,,
,,,,space,,0,143,143,177,1,M, , , , ,space,2500,2.5,,001,2021-08-19_16h48.54.616,natb3,2021.2.3,Win32,30.43491493,611d6fa7750a851746248607,611e07ecdcc96256ae8d5b80,611e7ce65c5dc916d69a7b9e,0.4625,
,,,,space,,0,144,144,276,1,H, , , , ,space,2000,2,,001,2021-08-19_16h48.54.616,natb3,2021.2.3,Win32,30.43491493,611d6fa7750a851746248607,611e07ecdcc96256ae8d5b80,611e7ce65c5dc916d69a7b9e,0.5852,
,,,,space,,0,145,145,34,1,Q, , , , ,space,2500,2.5,,001,2021-08-19_16h48.54.616,natb3,2021.2.3,Win32,30.43491493,611d6fa7750a851746248607,611e07ecdcc96256ae8d5b80,611e7ce65c5dc916d69a7b9e,0.6429,
,,,,space,,0,146,146,52,1,F, , , , ,space,1500,1.5,,001,2021-08-19_16h48.54.616,natb3,2021.2.3,Win32,30.43491493,611d6fa7750a851746248607,611e07ecdcc96256ae8d5b80,611e7ce65c5dc916d69a7b9e,0.5089,
,,,,space,,0,147,147,227,1,T, , , , ,space,1500,1.5,,001,2021-08-19_16h48.54.616,natb3,2021.2.3,Win32,30.43491493,611d6fa7750a851746248607,611e07ecdcc96256ae8d5b80,611e7ce65c5dc916d69a7b9e,0.5855,
,,,,space,,0,148,148,169,1,L, , , , ,space,2500,2.5,,001,2021-08-19_16h48.54.616,natb3,2021.2.3,Win32,30.43491493,611d6fa7750a851746248607,611e07ecdcc96256ae8d5b80,611e7ce65c5dc916d69a7b9e,0.5003,
,,,,,,0,149,149,39,1,X,6,2, , ,,1500,1.5,,001,2021-08-19_16h48.54.616,natb3,2021.2.3,Win32,30.43491493,611d6fa7750a851746248607,611e07ecdcc96256ae8d5b80,611e7ce65c5dc916d69a7b9e,,
,,,,space,,0,150,150,47,1,P, , , , ,space,2000,2,,001,2021-08-19_16h48.54.616,natb3,2021.2.3,Win32,30.43491493,611d6fa7750a851746248607,611e07ecdcc96256ae8d5b80,611e7ce65c5dc916d69a7b9e,0.4276,
,,,,,,0,151,151,295,1,X,8,7,5, ,,2500,2.5,,001,2021-08-19_16h48.54.616,natb3,2021.2.3,Win32,30.43491493,611d6fa7750a851746248607,611e07ecdcc96256ae8d5b80,611e7ce65c5dc916d69a7b9e,,
,,,,space,,0,152,152,109,1,U, , , , ,space,1500,1.5,,001,2021-08-19_16h48.54.616,natb3,2021.2.3,Win32,30.43491493,611d6fa7750a851746248607,611e07ecdcc96256ae8d5b80,611e7ce65c5dc916d69a7b9e,0.6185,
,,,,,,0,153,153,145,1,X, , , , ,,2000,2,,001,2021-08-19_16h48.54.616,natb3,2021.2.3,Win32,30.43491493,611d6fa7750a851746248607,611e07ecdcc96256ae8d5b80,611e7ce65c5dc916d69a7b9e,,
,,,,,,0,154,154,230,1,U, , , , ,space,1500,1.5,,001,2021-08-19_16h48.54.616,natb3,2021.2.3,Win32,30.43491493,611d6fa7750a851746248607,611e07ecdcc96256ae8d5b80,611e7ce65c5dc916d69a7b9e,,
,,,,space,,0,155,155,217,1,T, , , , ,space,2500,2.5,,001,2021-08-19_16h48.54.616,natb3,2021.2.3,Win32,30.43491493,611d6fa7750a851746248607,611e07ecdcc96256ae8d5b80,611e7ce65c5dc916d69a7b9e,0.4851,
,,,,,,0,156,156,89,1,X,3, , , ,,2000,2,,001,2021-08-19_16h48.54.616,natb3,2021.2.3,Win32,30.43491493,611d6fa7750a851746248607,611e07ecdcc96256ae8d5b80,611e7ce65c5dc916d69a7b9e,,
,,,,,,0,157,157,124,1,P, , , , ,space,2000,2,,001,2021-08-19_16h48.54.616,natb3,2021.2.3,Win32,30.43491493,611d6fa7750a851746248607,611e07ecdcc96256ae8d5b80,611e7ce65c5dc916d69a7b9e,,
,,,,,,0,158,158,86,1,G, , , , ,space,2000,2,,001,2021-08-19_16h48.54.616,natb3,2021.2.3,Win32,30.43491493,611d6fa7750a851746248607,611e07ecdcc96256ae8d5b80,611e7ce65c5dc916d69a7b9e,,
,,,,space,,0,159,159,329,1,X,3,4, ,2,,2500,2.5,,001,2021-08-19_16h48.54.616,natb3,2021.2.3,Win32,30.43491493,611d6fa7750a851746248607,611e07ecdcc96256ae8d5b80,611e7ce65c5dc916d69a7b9e,0.8082,
,,,,,,0,160,160,324,1,Q, , , , ,space,2000,2,,001,2021-08-19_16h48.54.616,natb3,2021.2.3,Win32,30.43491493,611d6fa7750a851746248607,611e07ecdcc96256ae8d5b80,611e7ce65c5dc916d69a7b9e,,
,,,,,,0,161,161,221,1,I, , , , ,space,2500,2.5,,001,2021-08-19_16h48.54.616,natb3,2021.2.3,Win32,30.43491493,611d6fa7750a851746248607,611e07ecdcc96256ae8d5b80,611e7ce65c5dc916d69a7b9e,,
,,,,space,,0,162,162,307,1,F, , , , ,space,2500,2.5,,001,2021-08-19_16h48.54.616,natb3,2021.2.3,Win32,30.43491493,611d6fa7750a851746248607,611e07ecdcc96256ae8d5b80,611e7ce65c5dc916d69a7b9e,0.4963,
,,,,space,,0,163,163,302,1,X, , , , ,,2000,2,,001,2021-08-19_16h48.54.616,natb3,2021.2.3,Win32,30.43491493,611d6fa7750a851746248607,611e07ecdcc96256ae8d5b80,611e7ce65c5dc916d69a7b9e,0.4516,
,,,,space,,0,164,164,226,1,R, , , , ,space,2000,2,,001,2021-08-19_16h48.54.616,natb3,2021.2.3,Win32,30.43491493,611d6fa7750a851746248607,611e07ecdcc96256ae8d5b80,611e7ce65c5dc916d69a7b9e,0.408,
,,,,space,,0,165,165,40,1,T, , , , ,space,1500,1.5,,001,2021-08-19_16h48.54.616,natb3,2021.2.3,Win32,30.43491493,611d6fa7750a851746248607,611e07ecdcc96256ae8d5b80,611e7ce65c5dc916d69a7b9e,0.3821,
,,,,space,,0,166,166,333,1,I, , , , ,space,1500,1.5,,001,2021-08-19_16h48.54.616,natb3,2021.2.3,Win32,30.43491493,611d6fa7750a851746248607,611e07ecdcc96256ae8d5b80,611e7ce65c5dc916d69a7b9e,0.404,
,,,,space,space,0,167,167,53,1,G, , , , ,space,2500,2.5,,001,2021-08-19_16h48.54.616,natb3,2021.2.3,Win32,30.43491493,611d6fa7750a851746248607,611e07ecdcc96256ae8d5b80,611e7ce65c5dc916d69a7b9e,0.5941,2.2273
,,,,space,,0,168,168,110,1,I, , , , ,space,1500,1.5,,001,2021-08-19_16h48.54.616,natb3,2021.2.3,Win32,30.43491493,611d6fa7750a851746248607,611e07ecdcc96256ae8d5b80,611e7ce65c5dc916d69a7b9e,0.5391,
,,,,space,,0,169,169,250,1,V, , , , ,space,2000,2,,001,2021-08-19_16h48.54.616,natb3,2021.2.3,Win32,30.43491493,611d6fa7750a851746248607,611e07ecdcc96256ae8d5b80,611e7ce65c5dc916d69a7b9e,0.4476,
,,,,,,0,170,170,12,1,X, , , , ,,1500,1.5,,001,2021-08-19_16h48.54.616,natb3,2021.2.3,Win32,30.43491493,611d6fa7750a851746248607,611e07ecdcc96256ae8d5b80,611e7ce65c5dc916d69a7b9e,,
,,,,space,,0,171,171,11,1,P, , , , ,space,2500,2.5,,001,2021-08-19_16h48.54.616,natb3,2021.2.3,Win32,30.43491493,611d6fa7750a851746248607,611e07ecdcc96256ae8d5b80,611e7ce65c5dc916d69a7b9e,0.5663,
,,,,space,,0,172,172,246,1,L, , , , ,space,2500,2.5,,001,2021-08-19_16h48.54.616,natb3,2021.2.3,Win32,30.43491493,611d6fa7750a851746248607,611e07ecdcc96256ae8d5b80,611e7ce65c5dc916d69a7b9e,0.5926,
,,,,space,,0,173,173,0,1,Q, , , , ,space,1500,1.5,,001,2021-08-19_16h48.54.616,natb3,2021.2.3,Win32,30.43491493,611d6fa7750a851746248607,611e07ecdcc96256ae8d5b80,611e7ce65c5dc916d69a7b9e,0.6849,
,,,,space,,0,174,174,80,1,A, , , , ,space,2000,2,,001,2021-08-19_16h48.54.616,natb3,2021.2.3,Win32,30.43491493,611d6fa7750a851746248607,611e07ecdcc96256ae8d5b80,611e7ce65c5dc916d69a7b9e,0.7678,
,,,,space,,0,175,175,266,1,O, , , , ,space,1500,1.5,,001,2021-08-19_16h48.54.616,natb3,2021.2.3,Win32,30.43491493,611d6fa7750a851746248607,611e07ecdcc96256ae8d5b80,611e7ce65c5dc916d69a7b9e,0.9461,
,,,,space,,0,176,176,146,1,W, , , , ,space,1500,1.5,,001,2021-08-19_16h48.54.616,natb3,2021.2.3,Win32,30.43491493,611d6fa7750a851746248607,611e07ecdcc96256ae8d5b80,611e7ce65c5dc916d69a7b9e,0.7183,
,,,,,,0,177,177,267,1,P, , , , ,space,2000,2,,001,2021-08-19_16h48.54.616,natb3,2021.2.3,Win32,30.43491493,611d6fa7750a851746248607,611e07ecdcc96256ae8d5b80,611e7ce65c5dc916d69a7b9e,,
,,,,space,,0,178,178,212,1,Q, , , , ,space,2500,2.5,,001,2021-08-19_16h48.54.616,natb3,2021.2.3,Win32,30.43491493,611d6fa7750a851746248607,611e07ecdcc96256ae8d5b80,611e7ce65c5dc916d69a7b9e,0.7655,
,,,,space,,0,179,179,162,1,X,1,6, ,2,,1500,1.5,,001,2021-08-19_16h48.54.616,natb3,2021.2.3,Win32,30.43491493,611d6fa7750a851746248607,611e07ecdcc96256ae8d5b80,611e7ce65c5dc916d69a7b9e,0.7237,
,,,,,,0,180,180,125,1,X, , , , ,,2000,2,,001,2021-08-19_16h48.54.616,natb3,2021.2.3,Win32,30.43491493,611d6fa7750a851746248607,611e07ecdcc96256ae8d5b80,611e7ce65c5dc916d69a7b9e,,
,,,,,,0,181,181,118,1,X, , , , ,,2000,2,,001,2021-08-19_16h48.54.616,natb3,2021.2.3,Win32,30.43491493,611d6fa7750a851746248607,611e07ecdcc96256ae8d5b80,611e7ce65c5dc916d69a7b9e,,
,,,,space,,0,182,182,269,1,A, , , , ,space,2500,2.5,,001,2021-08-19_16h48.54.616,natb3,2021.2.3,Win32,30.43491493,611d6fa7750a851746248607,611e07ecdcc96256ae8d5b80,611e7ce65c5dc916d69a7b9e,0.7766,
,,,,,,0,183,183,314,1,L, , , , ,space,1500,1.5,,001,2021-08-19_16h48.54.616,natb3,2021.2.3,Win32,30.43491493,611d6fa7750a851746248607,611e07ecdcc96256ae8d5b80,611e7ce65c5dc916d69a7b9e,,
,,,,space,,0,184,184,62,1,V, , , , ,space,1500,1.5,,001,2021-08-19_16h48.54.616,natb3,2021.2.3,Win32,30.43491493,611d6fa7750a851746248607,611e07ecdcc96256ae8d5b80,611e7ce65c5dc916d69a7b9e,0.9361,
,,,,,,0,185,185,58,1,L, , , , ,space,2000,2,,001,2021-08-19_16h48.54.616,natb3,2021.2.3,Win32,30.43491493,611d6fa7750a851746248607,611e07ecdcc96256ae8d5b80,611e7ce65c5dc916d69a7b9e,,
,,,,space,,0,186,186,87,1,H, , , , ,space,1500,1.5,,001,2021-08-19_16h48.54.616,natb3,2021.2.3,Win32,30.43491493,611d6fa7750a851746248607,611e07ecdcc96256ae8d5b80,611e7ce65c5dc916d69a7b9e,0.6665,
,,,,,,0,187,187,287,1,X, ,2, ,9,,2000,2,,001,2021-08-19_16h48.54.616,natb3,2021.2.3,Win32,30.43491493,611d6fa7750a851746248607,611e07ecdcc96256ae8d5b80,611e7ce65c5dc916d69a7b9e,,
,,,,space,,0,188,188,186,1,U, , , , ,space,2500,2.5,,001,2021-08-19_16h48.54.616,natb3,2021.2.3,Win32,30.43491493,611d6fa7750a851746248607,611e07ecdcc96256ae8d5b80,611e7ce65c5dc916d69a7b9e,0.5874,
,,,,,,0,189,189,236,1,X,3, ,4,7,,2500,2.5,,001,2021-08-19_16h48.54.616,natb3,2021.2.3,Win32,30.43491493,611d6fa7750a851746248607,611e07ecdcc96256ae8d5b80,611e7ce65c5dc916d69a7b9e,,
,,,,,,0,190,190,299,1,X, , , , ,,2500,2.5,,001,2021-08-19_16h48.54.616,natb3,2021.2.3,Win32,30.43491493,611d6fa7750a851746248607,611e07ecdcc96256ae8d5b80,611e7ce65c5dc916d69a7b9e,,
,,,,space,,0,191,191,114,1,E, , , , ,space,2000,2,,001,2021-08-19_16h48.54.616,natb3,2021.2.3,Win32,30.43491493,611d6fa7750a851746248607,611e07ecdcc96256ae8d5b80,611e7ce65c5dc916d69a7b9e,0.5884,
,,,,space,,0,192,192,328,1,R, , , , ,space,1500,1.5,,001,2021-08-19_16h48.54.616,natb3,2021.2.3,Win32,30.43491493,611d6fa7750a851746248607,611e07ecdcc96256ae8d5b80,611e7ce65c5dc916d69a7b9e,0.5301,
,,,,space,,0,193,193,150,1,T, , , , ,space,2500,2.5,,001,2021-08-19_16h48.54.616,natb3,2021.2.3,Win32,30.43491493,611d6fa7750a851746248607,611e07ecdcc96256ae8d5b80,611e7ce65c5dc916d69a7b9e,0.6608,
,,,,space,,0,194,194,92,1,Z, , , , ,space,1500,1.5,,001,2021-08-19_16h48.54.616,natb3,2021.2.3,Win32,30.43491493,611d6fa7750a851746248607,611e07ecdcc96256ae8d5b80,611e7ce65c5dc916d69a7b9e,0.8913,
,,,,space,,0,195,195,197,1,G, , , , ,space,2500,2.5,,001,2021-08-19_16h48.54.616,natb3,2021.2.3,Win32,30.43491493,611d6fa7750a851746248607,611e07ecdcc96256ae8d5b80,611e7ce65c5dc916d69a7b9e,0.5143,
,,,,space,,0,196,196,132,1,H, , , , ,space,2500,2.5,,001,2021-08-19_16h48.54.616,natb3,2021.2.3,Win32,30.43491493,611d6fa7750a851746248607,611e07ecdcc96256ae8d5b80,611e7ce65c5dc916d69a7b9e,0.4347,
,,,,space,,0,197,197,5,1,T, , , , ,space,2000,2,,001,2021-08-19_16h48.54.616,natb3,2021.2.3,Win32,30.43491493,611d6fa7750a851746248607,611e07ecdcc96256ae8d5b80,611e7ce65c5dc916d69a7b9e,0.4193,
,,,,space,,0,198,198,225,1,E, , , , ,space,2000,2,,001,2021-08-19_16h48.54.616,natb3,2021.2.3,Win32,30.43491493,611d6fa7750a851746248607,611e07ecdcc96256ae8d5b80,611e7ce65c5dc916d69a7b9e,0.3978,
,,,,space,,0,199,199,99,1,N, , , , ,space,2500,2.5,,001,2021-08-19_16h48.54.616,natb3,2021.2.3,Win32,30.43491493,611d6fa7750a851746248607,611e07ecdcc96256ae8d5b80,611e7ce65c5dc916d69a7b9e,0.4727,
,,,,space,,0,200,200,319,1,V, , , , ,space,2000,2,,001,2021-08-19_16h48.54.616,natb3,2021.2.3,Win32,30.43491493,611d6fa7750a851746248607,611e07ecdcc96256ae8d5b80,611e7ce65c5dc916d69a7b9e,0.4844,
,,,,space,,0,201,201,200,1,X,7, ,5,3,,1500,1.5,,001,2021-08-19_16h48.54.616,natb3,2021.2.3,Win32,30.43491493,611d6fa7750a851746248607,611e07ecdcc96256ae8d5b80,611e7ce65c5dc916d69a7b9e,0.5753,
,,,,,,0,202,202,211,1,X, , , , ,,2500,2.5,,001,2021-08-19_16h48.54.616,natb3,2021.2.3,Win32,30.43491493,611d6fa7750a851746248607,611e07ecdcc96256ae8d5b80,611e7ce65c5dc916d69a7b9e,,
,,,,space,,0,203,203,249,1,C, , , , ,space,2000,2,,001,2021-08-19_16h48.54.616,natb3,2021.2.3,Win32,30.43491493,611d6fa7750a851746248607,611e07ecdcc96256ae8d5b80,611e7ce65c5dc916d69a7b9e,0.4847,
,,,,,,0,204,204,203,1,X, , , , ,,2500,2.5,,001,2021-08-19_16h48.54.616,natb3,2021.2.3,Win32,30.43491493,611d6fa7750a851746248607,611e07ecdcc96256ae8d5b80,611e7ce65c5dc916d69a7b9e,,
,,,,space,,0,205,205,147,1,E, , , , ,space,2000,2,,001,2021-08-19_16h48.54.616,natb3,2021.2.3,Win32,30.43491493,611d6fa7750a851746248607,611e07ecdcc96256ae8d5b80,611e7ce65c5dc916d69a7b9e,0.425,
,,,,space,,0,206,206,161,1,F, , , , ,space,1500,1.5,,001,2021-08-19_16h48.54.616,natb3,2021.2.3,Win32,30.43491493,611d6fa7750a851746248607,611e07ecdcc96256ae8d5b80,611e7ce65c5dc916d69a7b9e,0.3192,
,,,,,,0,207,207,138,1,X,8,5, ,3,,2000,2,,001,2021-08-19_16h48.54.616,natb3,2021.2.3,Win32,30.43491493,611d6fa7750a851746248607,611e07ecdcc96256ae8d5b80,611e7ce65c5dc916d69a7b9e,,
,,,,space,,0,208,208,131,1,G, , , , ,space,1500,1.5,,001,2021-08-19_16h48.54.616,natb3,2021.2.3,Win32,30.43491493,611d6fa7750a851746248607,611e07ecdcc96256ae8d5b80,611e7ce65c5dc916d69a7b9e,0.4304,
,,,,space,,0,209,209,108,1,Y, , , , ,space,2500,2.5,,001,2021-08-19_16h48.54.616,natb3,2021.2.3,Win32,30.43491493,611d6fa7750a851746248607,611e07ecdcc96256ae8d5b80,611e7ce65c5dc916d69a7b9e,0.6378,
,,,,,,0,210,210,175,1,X,7, ,4,2,,1500,1.5,,001,2021-08-19_16h48.54.616,natb3,2021.2.3,Win32,30.43491493,611d6fa7750a851746248607,611e07ecdcc96256ae8d5b80,611e7ce65c5dc916d69a7b9e,,
,,,,space,,0,211,211,265,1,I, , , , ,space,2000,2,,001,2021-08-19_16h48.54.616,natb3,2021.2.3,Win32,30.43491493,611d6fa7750a851746248607,611e07ecdcc96256ae8d5b80,611e7ce65c5dc916d69a7b9e,0.7835,
,,,,,,0,212,212,129,1,X,2,3,5, ,,1500,1.5,,001,2021-08-19_16h48.54.616,natb3,2021.2.3,Win32,30.43491493,611d6fa7750a851746248607,611e07ecdcc96256ae8d5b80,611e7ce65c5dc916d69a7b9e,,
,,,,space,,0,213,213,56,1,J, , , , ,space,1500,1.5,,001,2021-08-19_16h48.54.616,natb3,2021.2.3,Win32,30.43491493,611d6fa7750a851746248607,611e07ecdcc96256ae8d5b80,611e7ce65c5dc916d69a7b9e,0.4095,
,,,,,,0,214,214,311,1,X,1,2,7,3,,2500,2.5,,001,2021-08-19_16h48.54.616,natb3,2021.2.3,Win32,30.43491493,611d6fa7750a851746248607,611e07ecdcc96256ae8d5b80,611e7ce65c5dc916d69a7b9e,,
,,,,,,0,215,215,182,1,X, , , , ,,1500,1.5,,001,2021-08-19_16h48.54.616,natb3,2021.2.3,Win32,30.43491493,611d6fa7750a851746248607,611e07ecdcc96256ae8d5b80,611e7ce65c5dc916d69a7b9e,,
,,,,space,,0,216,216,120,1,U, , , , ,space,1500,1.5,,001,2021-08-19_16h48.54.616,natb3,2021.2.3,Win32,30.43491493,611d6fa7750a851746248607,611e07ecdcc96256ae8d5b80,611e7ce65c5dc916d69a7b9e,0.411,
,,,,space,,0,217,217,271,1,X, , , , ,,2500,2.5,,001,2021-08-19_16h48.54.616,natb3,2021.2.3,Win32,30.43491493,611d6fa7750a851746248607,611e07ecdcc96256ae8d5b80,611e7ce65c5dc916d69a7b9e,0.5542,
,,,,space,,0,218,218,241,1,G, , , , ,space,2500,2.5,,001,2021-08-19_16h48.54.616,natb3,2021.2.3,Win32,30.43491493,611d6fa7750a851746248607,611e07ecdcc96256ae8d5b80,611e7ce65c5dc916d69a7b9e,0.5463,
,,,,space,,0,219,219,235,1,A, , , , ,space,1500,1.5,,001,2021-08-19_16h48.54.616,natb3,2021.2.3,Win32,30.43491493,611d6fa7750a851746248607,611e07ecdcc96256ae8d5b80,611e7ce65c5dc916d69a7b9e,0.6772,
,,,,space,,0,220,220,142,1,N, , , , ,space,2500,2.5,,001,2021-08-19_16h48.54.616,natb3,2021.2.3,Win32,30.43491493,611d6fa7750a851746248607,611e07ecdcc96256ae8d5b80,611e7ce65c5dc916d69a7b9e,0.5462,
,,,,space,,0,221,221,254,1,M, , , , ,space,1500,1.5,,001,2021-08-19_16h48.54.616,natb3,2021.2.3,Win32,30.43491493,611d6fa7750a851746248607,611e07ecdcc96256ae8d5b80,611e7ce65c5dc916d69a7b9e,0.5557,
,,,,,,0,222,222,84,1,X, , , , ,,2000,2,,001,2021-08-19_16h48.54.616,natb3,2021.2.3,Win32,30.43491493,611d6fa7750a851746248607,611e07ecdcc96256ae8d5b80,611e7ce65c5dc916d69a7b9e,,
,,,,space,,0,223,223,126,1,A, , , , ,space,2500,2.5,,001,2021-08-19_16h48.54.616,natb3,2021.2.3,Win32,30.43491493,611d6fa7750a851746248607,611e07ecdcc96256ae8d5b80,611e7ce65c5dc916d69a7b9e,0.4715,
,,,,space,,0,224,224,244,1,J, , , , ,space,1500,1.5,,001,2021-08-19_16h48.54.616,natb3,2021.2.3,Win32,30.43491493,611d6fa7750a851746248607,611e07ecdcc96256ae8d5b80,611e7ce65c5dc916d69a7b9e,0.5749,
,,,,space,,0,225,225,206,1,V, , , , ,space,2000,2,,001,2021-08-19_16h48.54.616,natb3,2021.2.3,Win32,30.43491493,611d6fa7750a851746248607,611e07ecdcc96256ae8d5b80,611e7ce65c5dc916d69a7b9e,0.5555,
,,,,,,0,226,226,141,1,X,1, ,4,6,,1500,1.5,,001,2021-08-19_16h48.54.616,natb3,2021.2.3,Win32,30.43491493,611d6fa7750a851746248607,611e07ecdcc96256ae8d5b80,611e7ce65c5dc916d69a7b9e,,
,,,,space,,0,227,227,112,1,Q, , , , ,space,2500,2.5,,001,2021-08-19_16h48.54.616,natb3,2021.2.3,Win32,30.43491493,611d6fa7750a851746248607,611e07ecdcc96256ae8d5b80,611e7ce65c5dc916d69a7b9e,0.4705,
,,,,space,,0,228,228,37,1,E, , , , ,space,2500,2.5,,001,2021-08-19_16h48.54.616,natb3,2021.2.3,Win32,30.43491493,611d6fa7750a851746248607,611e07ecdcc96256ae8d5b80,611e7ce65c5dc916d69a7b9e,0.6097,
,,,,space,,0,229,229,91,1,L, , , , ,space,2000,2,,001,2021-08-19_16h48.54.616,natb3,2021.2.3,Win32,30.43491493,611d6fa7750a851746248607,611e07ecdcc96256ae8d5b80,611e7ce65c5dc916d69a7b9e,0.474,
,,,,space,,0,230,230,243,1,X, , , , ,,2500,2.5,,001,2021-08-19_16h48.54.616,natb3,2021.2.3,Win32,30.43491493,611d6fa7750a851746248607,611e07ecdcc96256ae8d5b80,611e7ce65c5dc916d69a7b9e,0.4652,
,,,,,,0,231,231,60,1,X,7,3,5, ,,1500,1.5,,001,2021-08-19_16h48.54.616,natb3,2021.2.3,Win32,30.43491493,611d6fa7750a851746248607,611e07ecdcc96256ae8d5b80,611e7ce65c5dc916d69a7b9e,,
,,,,space,,0,232,232,113,1,W, , , , ,space,2500,2.5,,001,2021-08-19_16h48.54.616,natb3,2021.2.3,Win32,30.43491493,611d6fa7750a851746248607,611e07ecdcc96256ae8d5b80,611e7ce65c5dc916d69a7b9e,0.4122,
,,,,space,,0,233,233,284,1,V, , , , ,space,2500,2.5,,001,2021-08-19_16h48.54.616,natb3,2021.2.3,Win32,30.43491493,611d6fa7750a851746248607,611e07ecdcc96256ae8d5b80,611e7ce65c5dc916d69a7b9e,0.8025,
,,,,,,0,234,234,66,1,X, ,4,7, ,,2000,2,,001,2021-08-19_16h48.54.616,natb3,2021.2.3,Win32,30.43491493,611d6fa7750a851746248607,611e07ecdcc96256ae8d5b80,611e7ce65c5dc916d69a7b9e,,
,,,,space,,0,235,235,63,1,B, , , , ,space,2000,2,,001,2021-08-19_16h48.54.616,natb3,2021.2.3,Win32,30.43491493,611d6fa7750a851746248607,611e07ecdcc96256ae8d5b80,611e7ce65c5dc916d69a7b9e,0.5345,
,,,,space,,0,236,236,168,1,X, , , , ,,2500,2.5,,001,2021-08-19_16h48.54.616,natb3,2021.2.3,Win32,30.43491493,611d6fa7750a851746248607,611e07ecdcc96256ae8d5b80,611e7ce65c5dc916d69a7b9e,0.4061,
,,,,,,0,237,237,207,1,X,9, ,2, ,,2500,2.5,,001,2021-08-19_16h48.54.616,natb3,2021.2.3,Win32,30.43491493,611d6fa7750a851746248607,611e07ecdcc96256ae8d5b80,611e7ce65c5dc916d69a7b9e,,
,,,,space,,0,238,238,193,1,S, , , , ,space,2500,2.5,,001,2021-08-19_16h48.54.616,natb3,2021.2.3,Win32,30.43491493,611d6fa7750a851746248607,611e07ecdcc96256ae8d5b80,611e7ce65c5dc916d69a7b9e,0.6217,
,,,,space,,0,239,239,165,1,J, , , , ,space,2500,2.5,,001,2021-08-19_16h48.54.616,natb3,2021.2.3,Win32,30.43491493,611d6fa7750a851746248607,611e07ecdcc96256ae8d5b80,611e7ce65c5dc916d69a7b9e,0.4925,
,,,,space,,0,240,240,245,1,K, , , , ,space,2000,2,,001,2021-08-19_16h48.54.616,natb3,2021.2.3,Win32,30.43491493,611d6fa7750a851746248607,611e07ecdcc96256ae8d5b80,611e7ce65c5dc916d69a7b9e,0.6688,
,,,,space,,0,241,241,16,1,D, , , , ,space,1500,1.5,,001,2021-08-19_16h48.54.616,natb3,2021.2.3,Win32,30.43491493,611d6fa7750a851746248607,611e07ecdcc96256ae8d5b80,611e7ce65c5dc916d69a7b9e,0.4665,
,,,,space,,0,242,242,304,1,S, , , , ,space,2000,2,,001,2021-08-19_16h48.54.616,natb3,2021.2.3,Win32,30.43491493,611d6fa7750a851746248607,611e07ecdcc96256ae8d5b80,611e7ce65c5dc916d69a7b9e,0.4909,
,,,,,,0,243,243,105,1,R, , , , ,space,2500,2.5,,001,2021-08-19_16h48.54.616,natb3,2021.2.3,Win32,30.43491493,611d6fa7750a851746248607,611e07ecdcc96256ae8d5b80,611e7ce65c5dc916d69a7b9e,,
,,,,,,0,244,244,143,1,M, , , , ,space,2500,2.5,,001,2021-08-19_16h48.54.616,natb3,2021.2.3,Win32,30.43491493,611d6fa7750a851746248607,611e07ecdcc96256ae8d5b80,611e7ce65c5dc916d69a7b9e,,
,,,,space,,0,245,245,140,1,B, , , , ,space,2500,2.5,,001,2021-08-19_16h48.54.616,natb3,2021.2.3,Win32,30.43491493,611d6fa7750a851746248607,611e07ecdcc96256ae8d5b80,611e7ce65c5dc916d69a7b9e,0.4049,
,,,,space,,0,246,246,308,1,G, , , , ,space,1500,1.5,,001,2021-08-19_16h48.54.616,natb3,2021.2.3,Win32,30.43491493,611d6fa7750a851746248607,611e07ecdcc96256ae8d5b80,611e7ce65c5dc916d69a7b9e,0.6678,
,,,,space,,0,247,247,41,1,Y, , , , ,space,2500,2.5,,001,2021-08-19_16h48.54.616,natb3,2021.2.3,Win32,30.43491493,611d6fa7750a851746248607,611e07ecdcc96256ae8d5b80,611e7ce65c5dc916d69a7b9e,0.606,
,,,,space,,0,248,248,198,1,H, , , , ,space,2500,2.5,,001,2021-08-19_16h48.54.616,natb3,2021.2.3,Win32,30.43491493,611d6fa7750a851746248607,611e07ecdcc96256ae8d5b80,611e7ce65c5dc916d69a7b9e,0.5116,
,,,,space,,0,249,249,94,1,C, , , , ,space,2000,2,,001,2021-08-19_16h48.54.616,natb3,2021.2.3,Win32,30.43491493,611d6fa7750a851746248607,611e07ecdcc96256ae8d5b80,611e7ce65c5dc916d69a7b9e,0.7669,
,,,,space,,0,250,250,48,1,A, , , , ,space,2500,2.5,,001,2021-08-19_16h48.54.616,natb3,2021.2.3,Win32,30.43491493,611d6fa7750a851746248607,611e07ecdcc96256ae8d5b80,611e7ce65c5dc916d69a7b9e,0.5113,
,,,,space,,0,251,251,163,1,G, , , , ,space,2500,2.5,,001,2021-08-19_16h48.54.616,natb3,2021.2.3,Win32,30.43491493,611d6fa7750a851746248607,611e07ecdcc96256ae8d5b80,611e7ce65c5dc916d69a7b9e,0.4874,
,,,,space,,0,252,252,103,1,W, , , , ,space,2000,2,,001,2021-08-19_16h48.54.616,natb3,2021.2.3,Win32,30.43491493,611d6fa7750a851746248607,611e07ecdcc96256ae8d5b80,611e7ce65c5dc916d69a7b9e,0.4981,
,,,,space,,0,253,253,71,1,R, , , , ,space,2500,2.5,,001,2021-08-19_16h48.54.616,natb3,2021.2.3,Win32,30.43491493,611d6fa7750a851746248607,611e07ecdcc96256ae8d5b80,611e7ce65c5dc916d69a7b9e,0.4244,
,,,,space,,0,254,254,17,1,F, , , , ,space,2500,2.5,,001,2021-08-19_16h48.54.616,natb3,2021.2.3,Win32,30.43491493,611d6fa7750a851746248607,611e07ecdcc96256ae8d5b80,611e7ce65c5dc916d69a7b9e,0.562,
,,,,space,,0,255,255,97,1,B, , , , ,space,2500,2.5,,001,2021-08-19_16h48.54.616,natb3,2021.2.3,Win32,30.43491493,611d6fa7750a851746248607,611e07ecdcc96256ae8d5b80,611e7ce65c5dc916d69a7b9e,0.4723,
,,,,space,,0,256,256,195,1,X, , , , ,,1500,1.5,,001,2021-08-19_16h48.54.616,natb3,2021.2.3,Win32,30.43491493,611d6fa7750a851746248607,611e07ecdcc96256ae8d5b80,611e7ce65c5dc916d69a7b9e,0.5102,
,,,,,,0,257,257,117,1,T, , , , ,space,2500,2.5,,001,2021-08-19_16h48.54.616,natb3,2021.2.3,Win32,30.43491493,611d6fa7750a851746248607,611e07ecdcc96256ae8d5b80,611e7ce65c5dc916d69a7b9e,,
,,,,space,,0,258,258,70,1,E, , , , ,space,2500,2.5,,001,2021-08-19_16h48.54.616,natb3,2021.2.3,Win32,30.43491493,611d6fa7750a851746248607,611e07ecdcc96256ae8d5b80,611e7ce65c5dc916d69a7b9e,0.7832,
,,,,space,,0,259,259,223,1,Q, , , , ,space,2000,2,,001,2021-08-19_16h48.54.616,natb3,2021.2.3,Win32,30.43491493,611d6fa7750a851746248607,611e07ecdcc96256ae8d5b80,611e7ce65c5dc916d69a7b9e,0.815,
,,,,,,0,260,260,98,1,X, , , , ,,2500,2.5,,001,2021-08-19_16h48.54.616,natb3,2021.2.3,Win32,30.43491493,611d6fa7750a851746248607,611e07ecdcc96256ae8d5b80,611e7ce65c5dc916d69a7b9e,,
,,,,,,0,261,261,191,1,X,1, ,3,4,,2500,2.5,,001,2021-08-19_16h48.54.616,natb3,2021.2.3,Win32,30.43491493,611d6fa7750a851746248607,611e07ecdcc96256ae8d5b80,611e7ce65c5dc916d69a7b9e,,
,,,,,,0,262,262,22,1,K, , , , ,space,2000,2,,001,2021-08-19_16h48.54.616,natb3,2021.2.3,Win32,30.43491493,611d6fa7750a851746248607,611e07ecdcc96256ae8d5b80,611e7ce65c5dc916d69a7b9e,,
,,,,,,0,263,263,248,1,X, ,1,5, ,,1500,1.5,,001,2021-08-19_16h48.54.616,natb3,2021.2.3,Win32,30.43491493,611d6fa7750a851746248607,611e07ecdcc96256ae8d5b80,611e7ce65c5dc916d69a7b9e,,
,,,,space,,0,264,264,55,1,H, , , , ,space,2500,2.5,,001,2021-08-19_16h48.54.616,natb3,2021.2.3,Win32,30.43491493,611d6fa7750a851746248607,611e07ecdcc96256ae8d5b80,611e7ce65c5dc916d69a7b9e,0.7839,
,,,,,,0,265,265,331,1,Y, , , , ,space,2500,2.5,,001,2021-08-19_16h48.54.616,natb3,2021.2.3,Win32,30.43491493,611d6fa7750a851746248607,611e07ecdcc96256ae8d5b80,611e7ce65c5dc916d69a7b9e,,
,,,,space,,0,266,266,247,1,Z, , , , ,space,1500,1.5,,001,2021-08-19_16h48.54.616,natb3,2021.2.3,Win32,30.43491493,611d6fa7750a851746248607,611e07ecdcc96256ae8d5b80,611e7ce65c5dc916d69a7b9e,0.5289,
,,,,,,0,267,267,258,1,E, , , , ,space,1500,1.5,,001,2021-08-19_16h48.54.616,natb3,2021.2.3,Win32,30.43491493,611d6fa7750a851746248607,611e07ecdcc96256ae8d5b80,611e7ce65c5dc916d69a7b9e,,
,,,,space,,0,268,268,293,1,R, , , , ,space,2500,2.5,,001,2021-08-19_16h48.54.616,natb3,2021.2.3,Win32,30.43491493,611d6fa7750a851746248607,611e07ecdcc96256ae8d5b80,611e7ce65c5dc916d69a7b9e,0.7261,
,,,,space,,0,269,269,209,1,N, , , , ,space,2000,2,,001,2021-08-19_16h48.54.616,natb3,2021.2.3,Win32,30.43491493,611d6fa7750a851746248607,611e07ecdcc96256ae8d5b80,611e7ce65c5dc916d69a7b9e,0.4841,
,,,,space,,0,270,270,3,1,R, , , , ,space,2000,2,,001,2021-08-19_16h48.54.616,natb3,2021.2.3,Win32,30.43491493,611d6fa7750a851746248607,611e07ecdcc96256ae8d5b80,611e7ce65c5dc916d69a7b9e,0.547,
,,,,space,,0,271,271,300,1,O, , , , ,space,2500,2.5,,001,2021-08-19_16h48.54.616,natb3,2021.2.3,Win32,30.43491493,611d6fa7750a851746248607,611e07ecdcc96256ae8d5b80,611e7ce65c5dc916d69a7b9e,0.5615,
,,,,,,0,272,272,305,1,X, , , , ,,1500,1.5,,001,2021-08-19_16h48.54.616,natb3,2021.2.3,Win32,30.43491493,611d6fa7750a851746248607,611e07ecdcc96256ae8d5b80,611e7ce65c5dc916d69a7b9e,,
,,,,space,,0,273,273,189,1,O, , , , ,space,1500,1.5,,001,2021-08-19_16h48.54.616,natb3,2021.2.3,Win32,30.43491493,611d6fa7750a851746248607,611e07ecdcc96256ae8d5b80,611e7ce65c5dc916d69a7b9e,0.6184,
,,,,space,,0,274,274,159,1,S, , , , ,space,2500,2.5,,001,2021-08-19_16h48.54.616,natb3,2021.2.3,Win32,30.43491493,611d6fa7750a851746248607,611e07ecdcc96256ae8d5b80,611e7ce65c5dc916d69a7b9e,0.552,
,,,,space,,0,275,275,321,1,N, , , , ,space,2000,2,,001,2021-08-19_16h48.54.616,natb3,2021.2.3,Win32,30.43491493,611d6fa7750a851746248607,611e07ecdcc96256ae8d5b80,611e7ce65c5dc916d69a7b9e,0.5474,
,,,,space,,0,276,276,121,1,I, , , , ,space,2000,2,,001,2021-08-19_16h48.54.616,natb3,2021.2.3,Win32,30.43491493,611d6fa7750a851746248607,611e07ecdcc96256ae8d5b80,611e7ce65c5dc916d69a7b9e,0.7731,
,,,,space,,0,277,277,180,1,W, , , , ,space,2000,2,,001,2021-08-19_16h48.54.616,natb3,2021.2.3,Win32,30.43491493,611d6fa7750a851746248607,611e07ecdcc96256ae8d5b80,611e7ce65c5dc916d69a7b9e,0.9482,
,,,,space,,0,278,278,264,1,U, , , , ,space,2000,2,,001,2021-08-19_16h48.54.616,natb3,2021.2.3,Win32,30.43491493,611d6fa7750a851746248607,611e07ecdcc96256ae8d5b80,611e7ce65c5dc916d69a7b9e,0.5213,
,,,,space,,0,279,279,201,1,K, , , , ,space,1500,1.5,,001,2021-08-19_16h48.54.616,natb3,2021.2.3,Win32,30.43491493,611d6fa7750a851746248607,611e07ecdcc96256ae8d5b80,611e7ce65c5dc916d69a7b9e,0.8635,
,,,,space,,0,280,280,334,1,O, , , , ,space,1500,1.5,,001,2021-08-19_16h48.54.616,natb3,2021.2.3,Win32,30.43491493,611d6fa7750a851746248607,611e07ecdcc96256ae8d5b80,611e7ce65c5dc916d69a7b9e,0.4096,
,,,,space,,0,281,281,106,1,T, , , , ,space,1500,1.5,,001,2021-08-19_16h48.54.616,natb3,2021.2.3,Win32,30.43491493,611d6fa7750a851746248607,611e07ecdcc96256ae8d5b80,611e7ce65c5dc916d69a7b9e,0.504,
,,,,,,0,282,282,93,1,X,5, ,7, ,,2500,2.5,,001,2021-08-19_16h48.54.616,natb3,2021.2.3,Win32,30.43491493,611d6fa7750a851746248607,611e07ecdcc96256ae8d5b80,611e7ce65c5dc916d69a7b9e,,
,,,,space,,0,283,283,151,1,Y, , , , ,space,2500,2.5,,001,2021-08-19_16h48.54.616,natb3,2021.2.3,Win32,30.43491493,611d6fa7750a851746248607,611e07ecdcc96256ae8d5b80,611e7ce65c5dc916d69a7b9e,0.3619,
,,,,space,,0,284,284,72,1,T, , , , ,space,1500,1.5,,001,2021-08-19_16h48.54.616,natb3,2021.2.3,Win32,30.43491493,611d6fa7750a851746248607,611e07ecdcc96256ae8d5b80,611e7ce65c5dc916d69a7b9e,0.3952,
,,,,space,,0,285,285,65,1,M, , , , ,space,1500,1.5,,001,2021-08-19_16h48.54.616,natb3,2021.2.3,Win32,30.43491493,611d6fa7750a851746248607,611e07ecdcc96256ae8d5b80,611e7ce65c5dc916d69a7b9e,0.5698,
,,,,space,,0,286,286,9,1,I, , , , ,space,1500,1.5,,001,2021-08-19_16h48.54.616,natb3,2021.2.3,Win32,30.43491493,611d6fa7750a851746248607,611e07ecdcc96256ae8d5b80,611e7ce65c5dc916d69a7b9e,0.8287,
,,,,space,,0,287,287,261,1,T, , , , ,space,2000,2,,001,2021-08-19_16h48.54.616,natb3,2021.2.3,Win32,30.43491493,611d6fa7750a851746248607,611e07ecdcc96256ae8d5b80,611e7ce65c5dc916d69a7b9e,0.4252,
,,,,space,,0,288,288,296,1,Y, , , , ,space,2500,2.5,,001,2021-08-19_16h48.54.616,natb3,2021.2.3,Win32,30.43491493,611d6fa7750a851746248607,611e07ecdcc96256ae8d5b80,611e7ce65c5dc916d69a7b9e,0.4159,
,,,,,,0,289,289,259,1,X,8, , ,3,,2500,2.5,,001,2021-08-19_16h48.54.616,natb3,2021.2.3,Win32,30.43491493,611d6fa7750a851746248607,611e07ecdcc96256ae8d5b80,611e7ce65c5dc916d69a7b9e,,
,,,,space,,0,290,290,257,1,W, , , , ,space,2000,2,,001,2021-08-19_16h48.54.616,natb3,2021.2.3,Win32,30.43491493,611d6fa7750a851746248607,611e07ecdcc96256ae8d5b80,611e7ce65c5dc916d69a7b9e,0.479,
,,,,,,0,291,291,252,1,X,3, ,6,9,,2000,2,,001,2021-08-19_16h48.54.616,natb3,2021.2.3,Win32,30.43491493,611d6fa7750a851746248607,611e07ecdcc96256ae8d5b80,611e7ce65c5dc916d69a7b9e,,
,,,,space,,0,292,292,130,1,F, , , , ,space,2000,2,,001,2021-08-19_16h48.54.616,natb3,2021.2.3,Win32,30.43491493,611d6fa7750a851746248607,611e07ecdcc96256ae8d5b80,611e7ce65c5dc916d69a7b9e,0.5891,
,,,,,,0,293,293,54,1,X, , , , ,,2000,2,,001,2021-08-19_16h48.54.616,natb3,2021.2.3,Win32,30.43491493,611d6fa7750a851746248607,611e07ecdcc96256ae8d5b80,611e7ce65c5dc916d69a7b9e,,
,,,,space,,0,294,294,14,1,S, , , , ,space,2500,2.5,,001,2021-08-19_16h48.54.616,natb3,2021.2.3,Win32,30.43491493,611d6fa7750a851746248607,611e07ecdcc96256ae8d5b80,611e7ce65c5dc916d69a7b9e,0.4492,
,,,,,,0,295,295,224,1,W, , , , ,space,1500,1.5,,001,2021-08-19_16h48.54.616,natb3,2021.2.3,Win32,30.43491493,611d6fa7750a851746248607,611e07ecdcc96256ae8d5b80,611e7ce65c5dc916d69a7b9e,,
,,,,,,0,296,296,190,1,P, , , , ,space,2000,2,,001,2021-08-19_16h48.54.616,natb3,2021.2.3,Win32,30.43491493,611d6fa7750a851746248607,611e07ecdcc96256ae8d5b80,611e7ce65c5dc916d69a7b9e,,
,,,,space,,0,297,297,19,1,G, , , , ,space,1500,1.5,,001,2021-08-19_16h48.54.616,natb3,2021.2.3,Win32,30.43491493,611d6fa7750a851746248607,611e07ecdcc96256ae8d5b80,611e7ce65c5dc916d69a7b9e,0.9402,
,,,,,,0,298,298,322,1,X, , ,1,6,,2000,2,,001,2021-08-19_16h48.54.616,natb3,2021.2.3,Win32,30.43491493,611d6fa7750a851746248607,611e07ecdcc96256ae8d5b80,611e7ce65c5dc916d69a7b9e,,
,,,,space,,0,299,299,1,1,W, , , , ,space,2000,2,,001,2021-08-19_16h48.54.616,natb3,2021.2.3,Win32,30.43491493,611d6fa7750a851746248607,611e07ecdcc96256ae8d5b80,611e7ce65c5dc916d69a7b9e,0.7454,
,,,,space,,0,300,300,100,1,M, , , , ,space,2000,2,,001,2021-08-19_16h48.54.616,natb3,2021.2.3,Win32,30.43491493,611d6fa7750a851746248607,611e07ecdcc96256ae8d5b80,611e7ce65c5dc916d69a7b9e,0.5966,
,,,,,,0,301,301,23,1,X,1, ,5, ,,2000,2,,001,2021-08-19_16h48.54.616,natb3,2021.2.3,Win32,30.43491493,611d6fa7750a851746248607,611e07ecdcc96256ae8d5b80,611e7ce65c5dc916d69a7b9e,,
,,,,,,0,302,302,7,1,X, , , , ,,1500,1.5,,001,2021-08-19_16h48.54.616,natb3,2021.2.3,Win32,30.43491493,611d6fa7750a851746248607,611e07ecdcc96256ae8d5b80,611e7ce65c5dc916d69a7b9e,,
,,,,space,,0,303,303,303,1,A, , , , ,space,2000,2,,001,2021-08-19_16h48.54.616,natb3,2021.2.3,Win32,30.43491493,611d6fa7750a851746248607,611e07ecdcc96256ae8d5b80,611e7ce65c5dc916d69a7b9e,0.6636,
,,,,space,,0,304,304,279,1,K, , , , ,space,2500,2.5,,001,2021-08-19_16h48.54.616,natb3,2021.2.3,Win32,30.43491493,611d6fa7750a851746248607,611e07ecdcc96256ae8d5b80,611e7ce65c5dc916d69a7b9e,0.6805,
,,,,,,0,305,305,204,1,Z, , , , ,space,2000,2,,001,2021-08-19_16h48.54.616,natb3,2021.2.3,Win32,30.43491493,611d6fa7750a851746248607,611e07ecdcc96256ae8d5b80,611e7ce65c5dc916d69a7b9e,,
,,,,,,0,306,306,104,1,E, , , , ,space,2000,2,,001,2021-08-19_16h48.54.616,natb3,2021.2.3,Win32,30.43491493,611d6fa7750a851746248607,611e07ecdcc96256ae8d5b80,611e7ce65c5dc916d69a7b9e,,
,,,,,,0,307,307,216,1,R, , , , ,space,1500,1.5,,001,2021-08-19_16h48.54.616,natb3,2021.2.3,Win32,30.43491493,611d6fa7750a851746248607,611e07ecdcc96256ae8d5b80,611e7ce65c5dc916d69a7b9e,,
,,,,space,,0,308,308,176,1,N, , , , ,space,1500,1.5,,001,2021-08-19_16h48.54.616,natb3,2021.2.3,Win32,30.43491493,611d6fa7750a851746248607,611e07ecdcc96256ae8d5b80,611e7ce65c5dc916d69a7b9e,0.9068,
,,,,space,,0,309,309,290,1,W, , , , ,space,1500,1.5,,001,2021-08-19_16h48.54.616,natb3,2021.2.3,Win32,30.43491493,611d6fa7750a851746248607,611e07ecdcc96256ae8d5b80,611e7ce65c5dc916d69a7b9e,0.7691,
,,,,space,,0,310,310,25,1,Z, , , , ,space,2500,2.5,,001,2021-08-19_16h48.54.616,natb3,2021.2.3,Win32,30.43491493,611d6fa7750a851746248607,611e07ecdcc96256ae8d5b80,611e7ce65c5dc916d69a7b9e,0.4182,
,,,,space,,0,311,311,149,1,R, , , , ,space,2000,2,,001,2021-08-19_16h48.54.616,natb3,2021.2.3,Win32,30.43491493,611d6fa7750a851746248607,611e07ecdcc96256ae8d5b80,611e7ce65c5dc916d69a7b9e,0.7182,
,,,,,,0,312,312,154,1,I, , , , ,space,2500,2.5,,001,2021-08-19_16h48.54.616,natb3,2021.2.3,Win32,30.43491493,611d6fa7750a851746248607,611e07ecdcc96256ae8d5b80,611e7ce65c5dc916d69a7b9e,,
,,,,space,,0,313,313,170,1,Z, , , , ,space,2000,2,,001,2021-08-19_16h48.54.616,natb3,2021.2.3,Win32,30.43491493,611d6fa7750a851746248607,611e07ecdcc96256ae8d5b80,611e7ce65c5dc916d69a7b9e,0.3361,
,,,,space,,0,314,314,76,1,I, , , , ,space,2000,2,,001,2021-08-19_16h48.54.616,natb3,2021.2.3,Win32,30.43491493,611d6fa7750a851746248607,611e07ecdcc96256ae8d5b80,611e7ce65c5dc916d69a7b9e,0.4359,
,,,,space,,0,315,315,24,1,L, , , , ,space,2500,2.5,,001,2021-08-19_16h48.54.616,natb3,2021.2.3,Win32,30.43491493,611d6fa7750a851746248607,611e07ecdcc96256ae8d5b80,611e7ce65c5dc916d69a7b9e,0.5825,
,,,,,,0,316,316,35,1,X, , , , ,,2500,2.5,,001,2021-08-19_16h48.54.616,natb3,2021.2.3,Win32,30.43491493,611d6fa7750a851746248607,611e07ecdcc96256ae8d5b80,611e7ce65c5dc916d69a7b9e,,
,,,,,,0,317,317,291,1,X, , , , ,,2000,2,,001,2021-08-19_16h48.54.616,natb3,2021.2.3,Win32,30.43491493,611d6fa7750a851746248607,611e07ecdcc96256ae8d5b80,611e7ce65c5dc916d69a7b9e,,
,,,,,,0,318,318,107,1,X,9,3, ,2,,2000,2,,001,2021-08-19_16h48.54.616,natb3,2021.2.3,Win32,30.43491493,611d6fa7750a851746248607,611e07ecdcc96256ae8d5b80,611e7ce65c5dc916d69a7b9e,,
,,,,,,0,319,319,42,1,U, , , , ,space,1500,1.5,,001,2021-08-19_16h48.54.616,natb3,2021.2.3,Win32,30.43491493,611d6fa7750a851746248607,611e07ecdcc96256ae8d5b80,611e7ce65c5dc916d69a7b9e,,
,,,,,,0,320,320,274,1,F, , , , ,space,2000,2,,001,2021-08-19_16h48.54.616,natb3,2021.2.3,Win32,30.43491493,611d6fa7750a851746248607,611e07ecdcc96256ae8d5b80,611e7ce65c5dc916d69a7b9e,,
,,,,space,,0,321,321,289,1,Q, , , , ,space,2000,2,,001,2021-08-19_16h48.54.616,natb3,2021.2.3,Win32,30.43491493,611d6fa7750a851746248607,611e07ecdcc96256ae8d5b80,611e7ce65c5dc916d69a7b9e,0.3104,
,,,,,,0,322,322,74,1,X, ,4,3,2,,1500,1.5,,001,2021-08-19_16h48.54.616,natb3,2021.2.3,Win32,30.43491493,611d6fa7750a851746248607,611e07ecdcc96256ae8d5b80,611e7ce65c5dc916d69a7b9e,,
,,,,,,0,323,323,188,1,I, , , , ,space,2500,2.5,,001,2021-08-19_16h48.54.616,natb3,2021.2.3,Win32,30.43491493,611d6fa7750a851746248607,611e07ecdcc96256ae8d5b80,611e7ce65c5dc916d69a7b9e,,
,,,,,,0,324,324,277,1,X,8,5, ,2,,2000,2,,001,2021-08-19_16h48.54.616,natb3,2021.2.3,Win32,30.43491493,611d6fa7750a851746248607,611e07ecdcc96256ae8d5b80,611e7ce65c5dc916d69a7b9e,,
,,,,,,0,325,325,309,1,H, , , , ,space,2500,2.5,,001,2021-08-19_16h48.54.616,natb3,2021.2.3,Win32,30.43491493,611d6fa7750a851746248607,611e07ecdcc96256ae8d5b80,611e7ce65c5dc916d69a7b9e,,
,,,,,,0,326,326,79,1,P, , , , ,space,2000,2,,001,2021-08-19_16h48.54.616,natb3,2021.2.3,Win32,30.43491493,611d6fa7750a851746248607,611e07ecdcc96256ae8d5b80,611e7ce65c5dc916d69a7b9e,,
,,,,space,,0,327,327,237,1,S, , , , ,space,1500,1.5,,001,2021-08-19_16h48.54.616,natb3,2021.2.3,Win32,30.43491493,611d6fa7750a851746248607,611e07ecdcc96256ae8d5b80,611e7ce65c5dc916d69a7b9e,0.6184,
,,,,space,,0,328,328,6,1,Y, , , , ,space,2500,2.5,,001,2021-08-19_16h48.54.616,natb3,2021.2.3,Win32,30.43491493,611d6fa7750a851746248607,611e07ecdcc96256ae8d5b80,611e7ce65c5dc916d69a7b9e,0.4303,
,,,,space,,0,329,329,326,1,W, , , , ,space,2000,2,,001,2021-08-19_16h48.54.616,natb3,2021.2.3,Win32,30.43491493,611d6fa7750a851746248607,611e07ecdcc96256ae8d5b80,611e7ce65c5dc916d69a7b9e,0.4622,
,,,,space,,0,330,330,285,1,B, , , , ,space,1500,1.5,,001,2021-08-19_16h48.54.616,natb3,2021.2.3,Win32,30.43491493,611d6fa7750a851746248607,611e07ecdcc96256ae8d5b80,611e7ce65c5dc916d69a7b9e,0.4371,
,,,,space,,0,331,331,268,1,X,6, ,3, ,,2500,2.5,,001,2021-08-19_16h48.54.616,natb3,2021.2.3,Win32,30.43491493,611d6fa7750a851746248607,611e07ecdcc96256ae8d5b80,611e7ce65c5dc916d69a7b9e,0.3436,
,,,,space,,0,332,332,45,1,O, , , , ,space,2000,2,,001,2021-08-19_16h48.54.616,natb3,2021.2.3,Win32,30.43491493,611d6fa7750a851746248607,611e07ecdcc96256ae8d5b80,611e7ce65c5dc916d69a7b9e,0.4638,
,,,,space,,0,333,333,233,1,X, ,2, ,5,,1500,1.5,,001,2021-08-19_16h48.54.616,natb3,2021.2.3,Win32,30.43491493,611d6fa7750a851746248607,611e07ecdcc96256ae8d5b80,611e7ce65c5dc916d69a7b9e,0.367,
,,,,,,0,334,334,51,1,X,7,5,8, ,,1500,1.5,,001,2021-08-19_16h48.54.616,natb3,2021.2.3,Win32,30.43491493,611d6fa7750a851746248607,611e07ecdcc96256ae8d5b80,611e7ce65c5dc916d69a7b9e,,
,,,,,,0,335,335,13,1,A, , , , ,space,2000,2,,001,2021-08-19_16h48.54.616,natb3,2021.2.3,Win32,30.43491493,611d6fa7750a851746248607,611e07ecdcc96256ae8d5b80,611e7ce65c5dc916d69a7b9e,,
