key_resp_2.keys,key_resp_2.rt,key_resp_3.keys,key_resp_3.rt,key_resp.keys,key_resp.rt,key_resp_4.keys,trials.thisRepN,trials.thisTrialN,trials.thisN,trials.thisIndex,trials.ran,stimulus,distractor1,distractor2,distractor3,distractor4,CorrAns,isi_duration,isi_dur_in_seconds,participant,session,date,expName,psychopyVersion,OS,frameRate,PROLIFIC_PID,STUDY_ID,SESSION_ID,key_resp_4.rt
return,21.3566,space,18.4566,space,0.4891,,0,0,0,81,1,S, , , , ,space,2000,2,,001,2021-08-19_15h51.22.347,natb3,2021.2.3,Win32,60.08171113,611cecb5dbc0658aad64bf2d,611e07ecdcc96256ae8d5b80,611e6fd5c0f1ed7c1ba1d0ce,
,,,,space,0.4756,,0,1,1,56,1,J, , , , ,space,1500,1.5,,001,2021-08-19_15h51.22.347,natb3,2021.2.3,Win32,60.08171113,611cecb5dbc0658aad64bf2d,611e07ecdcc96256ae8d5b80,611e6fd5c0f1ed7c1ba1d0ce,
,,,,space,0.4085,,0,2,2,32,1,M, , , , ,space,1500,1.5,,001,2021-08-19_15h51.22.347,natb3,2021.2.3,Win32,60.08171113,611cecb5dbc0658aad64bf2d,611e07ecdcc96256ae8d5b80,611e6fd5c0f1ed7c1ba1d0ce,
,,,,space,0.5085,,0,3,3,137,1,C, , , , ,space,2500,2.5,,001,2021-08-19_15h51.22.347,natb3,2021.2.3,Win32,60.08171113,611cecb5dbc0658aad64bf2d,611e07ecdcc96256ae8d5b80,611e6fd5c0f1ed7c1ba1d0ce,
,,,,,,,0,4,4,39,1,X,6,2, , ,,1500,1.5,,001,2021-08-19_15h51.22.347,natb3,2021.2.3,Win32,60.08171113,611cecb5dbc0658aad64bf2d,611e07ecdcc96256ae8d5b80,611e6fd5c0f1ed7c1ba1d0ce,
,,,,space,0.474,,0,5,5,121,1,I, , , , ,space,2000,2,,001,2021-08-19_15h51.22.347,natb3,2021.2.3,Win32,60.08171113,611cecb5dbc0658aad64bf2d,611e07ecdcc96256ae8d5b80,611e6fd5c0f1ed7c1ba1d0ce,
,,,,space,0.4151,,0,6,6,258,1,E, , , , ,space,1500,1.5,,001,2021-08-19_15h51.22.347,natb3,2021.2.3,Win32,60.08171113,611cecb5dbc0658aad64bf2d,611e07ecdcc96256ae8d5b80,611e6fd5c0f1ed7c1ba1d0ce,
,,,,space,0.775,,0,7,7,249,1,C, , , , ,space,2000,2,,001,2021-08-19_15h51.22.347,natb3,2021.2.3,Win32,60.08171113,611cecb5dbc0658aad64bf2d,611e07ecdcc96256ae8d5b80,611e6fd5c0f1ed7c1ba1d0ce,
,,,,space,0.5603,,0,8,8,246,1,L, , , , ,space,2500,2.5,,001,2021-08-19_15h51.22.347,natb3,2021.2.3,Win32,60.08171113,611cecb5dbc0658aad64bf2d,611e07ecdcc96256ae8d5b80,611e6fd5c0f1ed7c1ba1d0ce,
,,,,space,0.4302,,0,9,9,65,1,M, , , , ,space,1500,1.5,,001,2021-08-19_15h51.22.347,natb3,2021.2.3,Win32,60.08171113,611cecb5dbc0658aad64bf2d,611e07ecdcc96256ae8d5b80,611e6fd5c0f1ed7c1ba1d0ce,
,,,,space,0.4576,,0,10,10,269,1,A, , , , ,space,2500,2.5,,001,2021-08-19_15h51.22.347,natb3,2021.2.3,Win32,60.08171113,611cecb5dbc0658aad64bf2d,611e07ecdcc96256ae8d5b80,611e6fd5c0f1ed7c1ba1d0ce,
,,,,,,,0,11,11,329,1,X,3,4, ,2,,2500,2.5,,001,2021-08-19_15h51.22.347,natb3,2021.2.3,Win32,60.08171113,611cecb5dbc0658aad64bf2d,611e07ecdcc96256ae8d5b80,611e6fd5c0f1ed7c1ba1d0ce,
,,,,space,0.4385,,0,12,12,278,1,J, , , , ,space,2000,2,,001,2021-08-19_15h51.22.347,natb3,2021.2.3,Win32,60.08171113,611cecb5dbc0658aad64bf2d,611e07ecdcc96256ae8d5b80,611e6fd5c0f1ed7c1ba1d0ce,
,,,,space,0.3982,,0,13,13,75,1,U, , , , ,space,1500,1.5,,001,2021-08-19_15h51.22.347,natb3,2021.2.3,Win32,60.08171113,611cecb5dbc0658aad64bf2d,611e07ecdcc96256ae8d5b80,611e6fd5c0f1ed7c1ba1d0ce,
,,,,space,0.4828,,0,14,14,173,1,V, , , , ,space,1500,1.5,,001,2021-08-19_15h51.22.347,natb3,2021.2.3,Win32,60.08171113,611cecb5dbc0658aad64bf2d,611e07ecdcc96256ae8d5b80,611e6fd5c0f1ed7c1ba1d0ce,
,,,,space,0.4005,,0,15,15,320,1,B, , , , ,space,1500,1.5,,001,2021-08-19_15h51.22.347,natb3,2021.2.3,Win32,60.08171113,611cecb5dbc0658aad64bf2d,611e07ecdcc96256ae8d5b80,611e6fd5c0f1ed7c1ba1d0ce,
,,,,space,0.5499,,0,16,16,180,1,W, , , , ,space,2000,2,,001,2021-08-19_15h51.22.347,natb3,2021.2.3,Win32,60.08171113,611cecb5dbc0658aad64bf2d,611e07ecdcc96256ae8d5b80,611e6fd5c0f1ed7c1ba1d0ce,
,,,,space,0.4398,,0,17,17,53,1,G, , , , ,space,2500,2.5,,001,2021-08-19_15h51.22.347,natb3,2021.2.3,Win32,60.08171113,611cecb5dbc0658aad64bf2d,611e07ecdcc96256ae8d5b80,611e6fd5c0f1ed7c1ba1d0ce,
,,,,,,,0,18,18,15,1,X, , , , ,,1500,1.5,,001,2021-08-19_15h51.22.347,natb3,2021.2.3,Win32,60.08171113,611cecb5dbc0658aad64bf2d,611e07ecdcc96256ae8d5b80,611e6fd5c0f1ed7c1ba1d0ce,
,,,,,,,0,19,19,302,1,X, , , , ,,2000,2,,001,2021-08-19_15h51.22.347,natb3,2021.2.3,Win32,60.08171113,611cecb5dbc0658aad64bf2d,611e07ecdcc96256ae8d5b80,611e6fd5c0f1ed7c1ba1d0ce,
,,,,space,0.5239,,0,20,20,113,1,W, , , , ,space,2500,2.5,,001,2021-08-19_15h51.22.347,natb3,2021.2.3,Win32,60.08171113,611cecb5dbc0658aad64bf2d,611e07ecdcc96256ae8d5b80,611e6fd5c0f1ed7c1ba1d0ce,
,,,,space,0.4155,,0,21,21,314,1,L, , , , ,space,1500,1.5,,001,2021-08-19_15h51.22.347,natb3,2021.2.3,Win32,60.08171113,611cecb5dbc0658aad64bf2d,611e07ecdcc96256ae8d5b80,611e6fd5c0f1ed7c1ba1d0ce,
,,,,space,0.4335,,0,22,22,194,1,D, , , , ,space,2000,2,,001,2021-08-19_15h51.22.347,natb3,2021.2.3,Win32,60.08171113,611cecb5dbc0658aad64bf2d,611e07ecdcc96256ae8d5b80,611e6fd5c0f1ed7c1ba1d0ce,
,,,,,,,0,23,23,229,1,X,8, ,2,6,,2500,2.5,,001,2021-08-19_15h51.22.347,natb3,2021.2.3,Win32,60.08171113,611cecb5dbc0658aad64bf2d,611e07ecdcc96256ae8d5b80,611e6fd5c0f1ed7c1ba1d0ce,
,,,,,,,0,24,24,200,1,X,7, ,5,3,,1500,1.5,,001,2021-08-19_15h51.22.347,natb3,2021.2.3,Win32,60.08171113,611cecb5dbc0658aad64bf2d,611e07ecdcc96256ae8d5b80,611e6fd5c0f1ed7c1ba1d0ce,
,,,,,,,0,25,25,207,1,X,9, ,2, ,,2500,2.5,,001,2021-08-19_15h51.22.347,natb3,2021.2.3,Win32,60.08171113,611cecb5dbc0658aad64bf2d,611e07ecdcc96256ae8d5b80,611e6fd5c0f1ed7c1ba1d0ce,
,,,,space,0.4567,,0,26,26,167,1,K, , , , ,space,1500,1.5,,001,2021-08-19_15h51.22.347,natb3,2021.2.3,Win32,60.08171113,611cecb5dbc0658aad64bf2d,611e07ecdcc96256ae8d5b80,611e6fd5c0f1ed7c1ba1d0ce,
,,,,space,0.3769,,0,27,27,147,1,E, , , , ,space,2000,2,,001,2021-08-19_15h51.22.347,natb3,2021.2.3,Win32,60.08171113,611cecb5dbc0658aad64bf2d,611e07ecdcc96256ae8d5b80,611e6fd5c0f1ed7c1ba1d0ce,
,,,,,,,0,28,28,239,1,X, , , , ,,2000,2,,001,2021-08-19_15h51.22.347,natb3,2021.2.3,Win32,60.08171113,611cecb5dbc0658aad64bf2d,611e07ecdcc96256ae8d5b80,611e6fd5c0f1ed7c1ba1d0ce,
,,,,space,0.531,,0,29,29,58,1,L, , , , ,space,2000,2,,001,2021-08-19_15h51.22.347,natb3,2021.2.3,Win32,60.08171113,611cecb5dbc0658aad64bf2d,611e07ecdcc96256ae8d5b80,611e6fd5c0f1ed7c1ba1d0ce,
,,,,space,0.4703,,0,30,30,24,1,L, , , , ,space,2500,2.5,,001,2021-08-19_15h51.22.347,natb3,2021.2.3,Win32,60.08171113,611cecb5dbc0658aad64bf2d,611e07ecdcc96256ae8d5b80,611e6fd5c0f1ed7c1ba1d0ce,
,,,,space,0.5847,,0,31,31,221,1,I, , , , ,space,2500,2.5,,001,2021-08-19_15h51.22.347,natb3,2021.2.3,Win32,60.08171113,611cecb5dbc0658aad64bf2d,611e07ecdcc96256ae8d5b80,611e6fd5c0f1ed7c1ba1d0ce,
,,,,space,0.4534,,0,32,32,289,1,Q, , , , ,space,2000,2,,001,2021-08-19_15h51.22.347,natb3,2021.2.3,Win32,60.08171113,611cecb5dbc0658aad64bf2d,611e07ecdcc96256ae8d5b80,611e6fd5c0f1ed7c1ba1d0ce,
,,,,space,0.4248,,0,33,33,14,1,S, , , , ,space,2500,2.5,,001,2021-08-19_15h51.22.347,natb3,2021.2.3,Win32,60.08171113,611cecb5dbc0658aad64bf2d,611e07ecdcc96256ae8d5b80,611e6fd5c0f1ed7c1ba1d0ce,
,,,,space,0.3984,,0,34,34,226,1,R, , , , ,space,2000,2,,001,2021-08-19_15h51.22.347,natb3,2021.2.3,Win32,60.08171113,611cecb5dbc0658aad64bf2d,611e07ecdcc96256ae8d5b80,611e6fd5c0f1ed7c1ba1d0ce,
,,,,space,0.3525,,0,35,35,76,1,I, , , , ,space,2000,2,,001,2021-08-19_15h51.22.347,natb3,2021.2.3,Win32,60.08171113,611cecb5dbc0658aad64bf2d,611e07ecdcc96256ae8d5b80,611e6fd5c0f1ed7c1ba1d0ce,
,,,,space,0.4861,,0,36,36,231,1,I, , , , ,space,2500,2.5,,001,2021-08-19_15h51.22.347,natb3,2021.2.3,Win32,60.08171113,611cecb5dbc0658aad64bf2d,611e07ecdcc96256ae8d5b80,611e6fd5c0f1ed7c1ba1d0ce,
,,,,space,0.5884,,0,37,37,242,1,H, , , , ,space,2500,2.5,,001,2021-08-19_15h51.22.347,natb3,2021.2.3,Win32,60.08171113,611cecb5dbc0658aad64bf2d,611e07ecdcc96256ae8d5b80,611e6fd5c0f1ed7c1ba1d0ce,
,,,,space,0.4754,,0,38,38,55,1,H, , , , ,space,2500,2.5,,001,2021-08-19_15h51.22.347,natb3,2021.2.3,Win32,60.08171113,611cecb5dbc0658aad64bf2d,611e07ecdcc96256ae8d5b80,611e6fd5c0f1ed7c1ba1d0ce,
,,,,space,0.3863,,0,39,39,199,1,J, , , , ,space,2500,2.5,,001,2021-08-19_15h51.22.347,natb3,2021.2.3,Win32,60.08171113,611cecb5dbc0658aad64bf2d,611e07ecdcc96256ae8d5b80,611e6fd5c0f1ed7c1ba1d0ce,
,,,,space,0.4514,,0,40,40,10,1,O, , , , ,space,2000,2,,001,2021-08-19_15h51.22.347,natb3,2021.2.3,Win32,60.08171113,611cecb5dbc0658aad64bf2d,611e07ecdcc96256ae8d5b80,611e6fd5c0f1ed7c1ba1d0ce,
,,,,,,,0,41,41,133,1,X, ,4, ,6,,2500,2.5,,001,2021-08-19_15h51.22.347,natb3,2021.2.3,Win32,60.08171113,611cecb5dbc0658aad64bf2d,611e07ecdcc96256ae8d5b80,611e6fd5c0f1ed7c1ba1d0ce,
,,,,,,,0,42,42,175,1,X,7, ,4,2,,1500,1.5,,001,2021-08-19_15h51.22.347,natb3,2021.2.3,Win32,60.08171113,611cecb5dbc0658aad64bf2d,611e07ecdcc96256ae8d5b80,611e6fd5c0f1ed7c1ba1d0ce,
,,,,,,,0,43,43,46,1,X, , , , ,,2000,2,,001,2021-08-19_15h51.22.347,natb3,2021.2.3,Win32,60.08171113,611cecb5dbc0658aad64bf2d,611e07ecdcc96256ae8d5b80,611e6fd5c0f1ed7c1ba1d0ce,
,,,,,,,0,44,44,211,1,X, , , , ,,2500,2.5,,001,2021-08-19_15h51.22.347,natb3,2021.2.3,Win32,60.08171113,611cecb5dbc0658aad64bf2d,611e07ecdcc96256ae8d5b80,611e6fd5c0f1ed7c1ba1d0ce,
,,,,space,0.5394,,0,45,45,296,1,Y, , , , ,space,2500,2.5,,001,2021-08-19_15h51.22.347,natb3,2021.2.3,Win32,60.08171113,611cecb5dbc0658aad64bf2d,611e07ecdcc96256ae8d5b80,611e6fd5c0f1ed7c1ba1d0ce,
,,,,space,0.5346,,0,46,46,87,1,H, , , , ,space,1500,1.5,,001,2021-08-19_15h51.22.347,natb3,2021.2.3,Win32,60.08171113,611cecb5dbc0658aad64bf2d,611e07ecdcc96256ae8d5b80,611e6fd5c0f1ed7c1ba1d0ce,
,,,,,,,0,47,47,51,1,X,7,5,8, ,,1500,1.5,,001,2021-08-19_15h51.22.347,natb3,2021.2.3,Win32,60.08171113,611cecb5dbc0658aad64bf2d,611e07ecdcc96256ae8d5b80,611e6fd5c0f1ed7c1ba1d0ce,
,,,,space,0.4111,,0,48,48,205,1,C, , , , ,space,2000,2,,001,2021-08-19_15h51.22.347,natb3,2021.2.3,Win32,60.08171113,611cecb5dbc0658aad64bf2d,611e07ecdcc96256ae8d5b80,611e6fd5c0f1ed7c1ba1d0ce,
,,,,space,0.5156,,0,49,49,204,1,Z, , , , ,space,2000,2,,001,2021-08-19_15h51.22.347,natb3,2021.2.3,Win32,60.08171113,611cecb5dbc0658aad64bf2d,611e07ecdcc96256ae8d5b80,611e6fd5c0f1ed7c1ba1d0ce,
,,,,space,0.3671,,0,50,50,40,1,T, , , , ,space,1500,1.5,,001,2021-08-19_15h51.22.347,natb3,2021.2.3,Win32,60.08171113,611cecb5dbc0658aad64bf2d,611e07ecdcc96256ae8d5b80,611e6fd5c0f1ed7c1ba1d0ce,
,,,,space,0.3652,,0,51,51,309,1,H, , , , ,space,2500,2.5,,001,2021-08-19_15h51.22.347,natb3,2021.2.3,Win32,60.08171113,611cecb5dbc0658aad64bf2d,611e07ecdcc96256ae8d5b80,611e6fd5c0f1ed7c1ba1d0ce,
,,,,space,0.4085,,0,52,52,106,1,T, , , , ,space,1500,1.5,,001,2021-08-19_15h51.22.347,natb3,2021.2.3,Win32,60.08171113,611cecb5dbc0658aad64bf2d,611e07ecdcc96256ae8d5b80,611e6fd5c0f1ed7c1ba1d0ce,
,,,,,,,0,53,53,18,1,X, ,2,5,8,,2500,2.5,,001,2021-08-19_15h51.22.347,natb3,2021.2.3,Win32,60.08171113,611cecb5dbc0658aad64bf2d,611e07ecdcc96256ae8d5b80,611e6fd5c0f1ed7c1ba1d0ce,
,,,,space,0.7819,,0,54,54,206,1,V, , , , ,space,2000,2,,001,2021-08-19_15h51.22.347,natb3,2021.2.3,Win32,60.08171113,611cecb5dbc0658aad64bf2d,611e07ecdcc96256ae8d5b80,611e6fd5c0f1ed7c1ba1d0ce,
,,,,space,0.3656,,0,55,55,290,1,W, , , , ,space,1500,1.5,,001,2021-08-19_15h51.22.347,natb3,2021.2.3,Win32,60.08171113,611cecb5dbc0658aad64bf2d,611e07ecdcc96256ae8d5b80,611e6fd5c0f1ed7c1ba1d0ce,
,,,,space,0.367,,0,56,56,327,1,E, , , , ,space,1500,1.5,,001,2021-08-19_15h51.22.347,natb3,2021.2.3,Win32,60.08171113,611cecb5dbc0658aad64bf2d,611e07ecdcc96256ae8d5b80,611e6fd5c0f1ed7c1ba1d0ce,
,,,,space,0.6608,,0,57,57,335,1,P,,,,,space,1500,1.5,,001,2021-08-19_15h51.22.347,natb3,2021.2.3,Win32,60.08171113,611cecb5dbc0658aad64bf2d,611e07ecdcc96256ae8d5b80,611e6fd5c0f1ed7c1ba1d0ce,
,,,,space,0.4689,,0,58,58,216,1,R, , , , ,space,1500,1.5,,001,2021-08-19_15h51.22.347,natb3,2021.2.3,Win32,60.08171113,611cecb5dbc0658aad64bf2d,611e07ecdcc96256ae8d5b80,611e6fd5c0f1ed7c1ba1d0ce,
,,,,,,,0,59,59,315,1,X, , , , ,,2500,2.5,,001,2021-08-19_15h51.22.347,natb3,2021.2.3,Win32,60.08171113,611cecb5dbc0658aad64bf2d,611e07ecdcc96256ae8d5b80,611e6fd5c0f1ed7c1ba1d0ce,
,,,,space,0.5344,,0,60,60,20,1,H, , , , ,space,1500,1.5,,001,2021-08-19_15h51.22.347,natb3,2021.2.3,Win32,60.08171113,611cecb5dbc0658aad64bf2d,611e07ecdcc96256ae8d5b80,611e6fd5c0f1ed7c1ba1d0ce,
,,,,space,0.4492,,0,61,61,17,1,F, , , , ,space,2500,2.5,,001,2021-08-19_15h51.22.347,natb3,2021.2.3,Win32,60.08171113,611cecb5dbc0658aad64bf2d,611e07ecdcc96256ae8d5b80,611e6fd5c0f1ed7c1ba1d0ce,
,,,,space,0.4521,,0,62,62,276,1,H, , , , ,space,2000,2,,001,2021-08-19_15h51.22.347,natb3,2021.2.3,Win32,60.08171113,611cecb5dbc0658aad64bf2d,611e07ecdcc96256ae8d5b80,611e6fd5c0f1ed7c1ba1d0ce,
,,,,space,0.3676,,0,63,63,33,1,X, , , , ,,1500,1.5,,001,2021-08-19_15h51.22.347,natb3,2021.2.3,Win32,60.08171113,611cecb5dbc0658aad64bf2d,611e07ecdcc96256ae8d5b80,611e6fd5c0f1ed7c1ba1d0ce,
,,,,,,,0,64,64,191,1,X,1, ,3,4,,2500,2.5,,001,2021-08-19_15h51.22.347,natb3,2021.2.3,Win32,60.08171113,611cecb5dbc0658aad64bf2d,611e07ecdcc96256ae8d5b80,611e6fd5c0f1ed7c1ba1d0ce,
,,,,space,0.5246,,0,65,65,139,1,V, , , , ,space,2000,2,,001,2021-08-19_15h51.22.347,natb3,2021.2.3,Win32,60.08171113,611cecb5dbc0658aad64bf2d,611e07ecdcc96256ae8d5b80,611e6fd5c0f1ed7c1ba1d0ce,
,,,,,,,0,66,66,255,1,X, , , , ,,1500,1.5,,001,2021-08-19_15h51.22.347,natb3,2021.2.3,Win32,60.08171113,611cecb5dbc0658aad64bf2d,611e07ecdcc96256ae8d5b80,611e6fd5c0f1ed7c1ba1d0ce,
,,,,,,,0,67,67,118,1,X, , , , ,,2000,2,,001,2021-08-19_15h51.22.347,natb3,2021.2.3,Win32,60.08171113,611cecb5dbc0658aad64bf2d,611e07ecdcc96256ae8d5b80,611e6fd5c0f1ed7c1ba1d0ce,
,,,,space,0.582,,0,68,68,201,1,K, , , , ,space,1500,1.5,,001,2021-08-19_15h51.22.347,natb3,2021.2.3,Win32,60.08171113,611cecb5dbc0658aad64bf2d,611e07ecdcc96256ae8d5b80,611e6fd5c0f1ed7c1ba1d0ce,
,,,,space,0.4226,,0,69,69,21,1,J, , , , ,space,1500,1.5,,001,2021-08-19_15h51.22.347,natb3,2021.2.3,Win32,60.08171113,611cecb5dbc0658aad64bf2d,611e07ecdcc96256ae8d5b80,611e6fd5c0f1ed7c1ba1d0ce,
,,,,space,0.3676,,0,70,70,184,1,T, , , , ,space,2000,2,,001,2021-08-19_15h51.22.347,natb3,2021.2.3,Win32,60.08171113,611cecb5dbc0658aad64bf2d,611e07ecdcc96256ae8d5b80,611e6fd5c0f1ed7c1ba1d0ce,
,,,,space,0.4593,,0,71,71,34,1,Q, , , , ,space,2500,2.5,,001,2021-08-19_15h51.22.347,natb3,2021.2.3,Win32,60.08171113,611cecb5dbc0658aad64bf2d,611e07ecdcc96256ae8d5b80,611e6fd5c0f1ed7c1ba1d0ce,
,,,,,,,0,72,72,35,1,X, , , , ,,2500,2.5,,001,2021-08-19_15h51.22.347,natb3,2021.2.3,Win32,60.08171113,611cecb5dbc0658aad64bf2d,611e07ecdcc96256ae8d5b80,611e6fd5c0f1ed7c1ba1d0ce,
,,,,space,0.4002,,0,73,73,45,1,O, , , , ,space,2000,2,,001,2021-08-19_15h51.22.347,natb3,2021.2.3,Win32,60.08171113,611cecb5dbc0658aad64bf2d,611e07ecdcc96256ae8d5b80,611e6fd5c0f1ed7c1ba1d0ce,
,,,,space,0.5094,,0,74,74,111,1,O, , , , ,space,2000,2,,001,2021-08-19_15h51.22.347,natb3,2021.2.3,Win32,60.08171113,611cecb5dbc0658aad64bf2d,611e07ecdcc96256ae8d5b80,611e6fd5c0f1ed7c1ba1d0ce,
,,,,space,0.3838,,0,75,75,160,1,D, , , , ,space,1500,1.5,,001,2021-08-19_15h51.22.347,natb3,2021.2.3,Win32,60.08171113,611cecb5dbc0658aad64bf2d,611e07ecdcc96256ae8d5b80,611e6fd5c0f1ed7c1ba1d0ce,
,,,,space,0.5318,,0,76,76,324,1,Q, , , , ,space,2000,2,,001,2021-08-19_15h51.22.347,natb3,2021.2.3,Win32,60.08171113,611cecb5dbc0658aad64bf2d,611e07ecdcc96256ae8d5b80,611e6fd5c0f1ed7c1ba1d0ce,
,,,,space,0.3658,,0,77,77,161,1,F, , , , ,space,1500,1.5,,001,2021-08-19_15h51.22.347,natb3,2021.2.3,Win32,60.08171113,611cecb5dbc0658aad64bf2d,611e07ecdcc96256ae8d5b80,611e6fd5c0f1ed7c1ba1d0ce,
,,,,space,0.3664,,0,78,78,3,1,R, , , , ,space,2000,2,,001,2021-08-19_15h51.22.347,natb3,2021.2.3,Win32,60.08171113,611cecb5dbc0658aad64bf2d,611e07ecdcc96256ae8d5b80,611e6fd5c0f1ed7c1ba1d0ce,
,,,,space,0.4166,,0,79,79,174,1,B, , , , ,space,2500,2.5,,001,2021-08-19_15h51.22.347,natb3,2021.2.3,Win32,60.08171113,611cecb5dbc0658aad64bf2d,611e07ecdcc96256ae8d5b80,611e6fd5c0f1ed7c1ba1d0ce,
,,,,space,0.3423,,0,80,80,79,1,P, , , , ,space,2000,2,,001,2021-08-19_15h51.22.347,natb3,2021.2.3,Win32,60.08171113,611cecb5dbc0658aad64bf2d,611e07ecdcc96256ae8d5b80,611e6fd5c0f1ed7c1ba1d0ce,
,,,,,,,0,81,81,138,1,X,8,5, ,3,,2000,2,,001,2021-08-19_15h51.22.347,natb3,2021.2.3,Win32,60.08171113,611cecb5dbc0658aad64bf2d,611e07ecdcc96256ae8d5b80,611e6fd5c0f1ed7c1ba1d0ce,
,,,,,,,0,82,82,273,1,X, , , , ,,2000,2,,001,2021-08-19_15h51.22.347,natb3,2021.2.3,Win32,60.08171113,611cecb5dbc0658aad64bf2d,611e07ecdcc96256ae8d5b80,611e6fd5c0f1ed7c1ba1d0ce,
,,,,,,,0,83,83,98,1,X, , , , ,,2500,2.5,,001,2021-08-19_15h51.22.347,natb3,2021.2.3,Win32,60.08171113,611cecb5dbc0658aad64bf2d,611e07ecdcc96256ae8d5b80,611e6fd5c0f1ed7c1ba1d0ce,
,,,,space,0.5957,,0,84,84,9,1,I, , , , ,space,1500,1.5,,001,2021-08-19_15h51.22.347,natb3,2021.2.3,Win32,60.08171113,611cecb5dbc0658aad64bf2d,611e07ecdcc96256ae8d5b80,611e6fd5c0f1ed7c1ba1d0ce,
,,,,space,0.4666,,0,85,85,110,1,I, , , , ,space,1500,1.5,,001,2021-08-19_15h51.22.347,natb3,2021.2.3,Win32,60.08171113,611cecb5dbc0658aad64bf2d,611e07ecdcc96256ae8d5b80,611e6fd5c0f1ed7c1ba1d0ce,
,,,,space,0.4342,,0,86,86,228,1,Y, , , , ,space,2000,2,,001,2021-08-19_15h51.22.347,natb3,2021.2.3,Win32,60.08171113,611cecb5dbc0658aad64bf2d,611e07ecdcc96256ae8d5b80,611e6fd5c0f1ed7c1ba1d0ce,
,,,,space,0.3403,,0,87,87,227,1,T, , , , ,space,1500,1.5,,001,2021-08-19_15h51.22.347,natb3,2021.2.3,Win32,60.08171113,611cecb5dbc0658aad64bf2d,611e07ecdcc96256ae8d5b80,611e6fd5c0f1ed7c1ba1d0ce,
,,,,space,0.4117,,0,88,88,97,1,B, , , , ,space,2500,2.5,,001,2021-08-19_15h51.22.347,natb3,2021.2.3,Win32,60.08171113,611cecb5dbc0658aad64bf2d,611e07ecdcc96256ae8d5b80,611e6fd5c0f1ed7c1ba1d0ce,
,,,,space,0.3998,,0,89,89,132,1,H, , , , ,space,2500,2.5,,001,2021-08-19_15h51.22.347,natb3,2021.2.3,Win32,60.08171113,611cecb5dbc0658aad64bf2d,611e07ecdcc96256ae8d5b80,611e6fd5c0f1ed7c1ba1d0ce,
,,,,space,0.3508,,0,90,90,72,1,T, , , , ,space,1500,1.5,,001,2021-08-19_15h51.22.347,natb3,2021.2.3,Win32,60.08171113,611cecb5dbc0658aad64bf2d,611e07ecdcc96256ae8d5b80,611e6fd5c0f1ed7c1ba1d0ce,
,,,,space,0.3818,,0,91,91,90,1,K, , , , ,space,2000,2,,001,2021-08-19_15h51.22.347,natb3,2021.2.3,Win32,60.08171113,611cecb5dbc0658aad64bf2d,611e07ecdcc96256ae8d5b80,611e6fd5c0f1ed7c1ba1d0ce,
,,,,,,,0,92,92,89,1,X,3, , , ,,2000,2,,001,2021-08-19_15h51.22.347,natb3,2021.2.3,Win32,60.08171113,611cecb5dbc0658aad64bf2d,611e07ecdcc96256ae8d5b80,611e6fd5c0f1ed7c1ba1d0ce,
,,,,space,0.3809,,0,93,93,128,1,D, , , , ,space,2500,2.5,,001,2021-08-19_15h51.22.347,natb3,2021.2.3,Win32,60.08171113,611cecb5dbc0658aad64bf2d,611e07ecdcc96256ae8d5b80,611e6fd5c0f1ed7c1ba1d0ce,
,,,,space,0.424,,0,94,94,4,1,X, , , , ,,2000,2,,001,2021-08-19_15h51.22.347,natb3,2021.2.3,Win32,60.08171113,611cecb5dbc0658aad64bf2d,611e07ecdcc96256ae8d5b80,611e6fd5c0f1ed7c1ba1d0ce,
,,,,,,,0,95,95,96,1,X, , , , ,,1500,1.5,,001,2021-08-19_15h51.22.347,natb3,2021.2.3,Win32,60.08171113,611cecb5dbc0658aad64bf2d,611e07ecdcc96256ae8d5b80,611e6fd5c0f1ed7c1ba1d0ce,
,,,,space,0.3833,,0,96,96,70,1,E, , , , ,space,2500,2.5,,001,2021-08-19_15h51.22.347,natb3,2021.2.3,Win32,60.08171113,611cecb5dbc0658aad64bf2d,611e07ecdcc96256ae8d5b80,611e6fd5c0f1ed7c1ba1d0ce,
,,,,,,,0,97,97,31,1,X, , , , ,,1500,1.5,,001,2021-08-19_15h51.22.347,natb3,2021.2.3,Win32,60.08171113,611cecb5dbc0658aad64bf2d,611e07ecdcc96256ae8d5b80,611e6fd5c0f1ed7c1ba1d0ce,
,,,,,,,0,98,98,263,1,X,4, ,6, ,,1500,1.5,,001,2021-08-19_15h51.22.347,natb3,2021.2.3,Win32,60.08171113,611cecb5dbc0658aad64bf2d,611e07ecdcc96256ae8d5b80,611e6fd5c0f1ed7c1ba1d0ce,
,,,,space,0.4487,,0,99,99,11,1,P, , , , ,space,2500,2.5,,001,2021-08-19_15h51.22.347,natb3,2021.2.3,Win32,60.08171113,611cecb5dbc0658aad64bf2d,611e07ecdcc96256ae8d5b80,611e6fd5c0f1ed7c1ba1d0ce,
,,,,,,,0,100,100,162,1,X,1,6, ,2,,1500,1.5,,001,2021-08-19_15h51.22.347,natb3,2021.2.3,Win32,60.08171113,611cecb5dbc0658aad64bf2d,611e07ecdcc96256ae8d5b80,611e6fd5c0f1ed7c1ba1d0ce,
,,,,space,0.5464,,0,101,101,253,1,N, , , , ,space,2500,2.5,,001,2021-08-19_15h51.22.347,natb3,2021.2.3,Win32,60.08171113,611cecb5dbc0658aad64bf2d,611e07ecdcc96256ae8d5b80,611e6fd5c0f1ed7c1ba1d0ce,
,,,,space,0.3904,,0,102,102,197,1,G, , , , ,space,2500,2.5,,001,2021-08-19_15h51.22.347,natb3,2021.2.3,Win32,60.08171113,611cecb5dbc0658aad64bf2d,611e07ecdcc96256ae8d5b80,611e6fd5c0f1ed7c1ba1d0ce,
,,,,,,,0,103,103,93,1,X,5, ,7, ,,2500,2.5,,001,2021-08-19_15h51.22.347,natb3,2021.2.3,Win32,60.08171113,611cecb5dbc0658aad64bf2d,611e07ecdcc96256ae8d5b80,611e6fd5c0f1ed7c1ba1d0ce,
,,,,space,0.4574,,0,104,104,103,1,W, , , , ,space,2000,2,,001,2021-08-19_15h51.22.347,natb3,2021.2.3,Win32,60.08171113,611cecb5dbc0658aad64bf2d,611e07ecdcc96256ae8d5b80,611e6fd5c0f1ed7c1ba1d0ce,
,,,,space,0.4008,,0,105,105,275,1,G, , , , ,space,1500,1.5,,001,2021-08-19_15h51.22.347,natb3,2021.2.3,Win32,60.08171113,611cecb5dbc0658aad64bf2d,611e07ecdcc96256ae8d5b80,611e6fd5c0f1ed7c1ba1d0ce,
,,,,space,0.517,,0,106,106,19,1,G, , , , ,space,1500,1.5,,001,2021-08-19_15h51.22.347,natb3,2021.2.3,Win32,60.08171113,611cecb5dbc0658aad64bf2d,611e07ecdcc96256ae8d5b80,611e6fd5c0f1ed7c1ba1d0ce,
,,,,space,0.3873,,0,107,107,134,1,J, , , , ,space,2000,2,,001,2021-08-19_15h51.22.347,natb3,2021.2.3,Win32,60.08171113,611cecb5dbc0658aad64bf2d,611e07ecdcc96256ae8d5b80,611e6fd5c0f1ed7c1ba1d0ce,
,,,,space,0.355,,0,108,108,78,1,X, , , , ,,2000,2,,001,2021-08-19_15h51.22.347,natb3,2021.2.3,Win32,60.08171113,611cecb5dbc0658aad64bf2d,611e07ecdcc96256ae8d5b80,611e6fd5c0f1ed7c1ba1d0ce,
,,,,space,0.4493,,0,109,109,250,1,V, , , , ,space,2000,2,,001,2021-08-19_15h51.22.347,natb3,2021.2.3,Win32,60.08171113,611cecb5dbc0658aad64bf2d,611e07ecdcc96256ae8d5b80,611e6fd5c0f1ed7c1ba1d0ce,
,,,,,,,0,110,110,305,1,X, , , , ,,1500,1.5,,001,2021-08-19_15h51.22.347,natb3,2021.2.3,Win32,60.08171113,611cecb5dbc0658aad64bf2d,611e07ecdcc96256ae8d5b80,611e6fd5c0f1ed7c1ba1d0ce,
,,,,space,0.5217,,0,111,111,28,1,V, , , , ,space,1500,1.5,,001,2021-08-19_15h51.22.347,natb3,2021.2.3,Win32,60.08171113,611cecb5dbc0658aad64bf2d,611e07ecdcc96256ae8d5b80,611e6fd5c0f1ed7c1ba1d0ce,
,,,,space,0.4065,,0,112,112,274,1,F, , , , ,space,2000,2,,001,2021-08-19_15h51.22.347,natb3,2021.2.3,Win32,60.08171113,611cecb5dbc0658aad64bf2d,611e07ecdcc96256ae8d5b80,611e6fd5c0f1ed7c1ba1d0ce,
,,,,,,,0,113,113,218,1,X,1,3, ,8,,1500,1.5,,001,2021-08-19_15h51.22.347,natb3,2021.2.3,Win32,60.08171113,611cecb5dbc0658aad64bf2d,611e07ecdcc96256ae8d5b80,611e6fd5c0f1ed7c1ba1d0ce,
,,,,,,,0,114,114,282,1,X, , , , ,,2500,2.5,,001,2021-08-19_15h51.22.347,natb3,2021.2.3,Win32,60.08171113,611cecb5dbc0658aad64bf2d,611e07ecdcc96256ae8d5b80,611e6fd5c0f1ed7c1ba1d0ce,
,,,,space,0.5498,,0,115,115,254,1,M, , , , ,space,1500,1.5,,001,2021-08-19_15h51.22.347,natb3,2021.2.3,Win32,60.08171113,611cecb5dbc0658aad64bf2d,611e07ecdcc96256ae8d5b80,611e6fd5c0f1ed7c1ba1d0ce,
,,,,space,0.5349,,0,116,116,247,1,Z, , , , ,space,1500,1.5,,001,2021-08-19_15h51.22.347,natb3,2021.2.3,Win32,60.08171113,611cecb5dbc0658aad64bf2d,611e07ecdcc96256ae8d5b80,611e6fd5c0f1ed7c1ba1d0ce,
,,,,,,,0,117,117,318,1,X, , , , ,,1500,1.5,,001,2021-08-19_15h51.22.347,natb3,2021.2.3,Win32,60.08171113,611cecb5dbc0658aad64bf2d,611e07ecdcc96256ae8d5b80,611e6fd5c0f1ed7c1ba1d0ce,
,,,,space,0.5165,,0,118,118,219,1,Y, , , , ,space,2000,2,,001,2021-08-19_15h51.22.347,natb3,2021.2.3,Win32,60.08171113,611cecb5dbc0658aad64bf2d,611e07ecdcc96256ae8d5b80,611e6fd5c0f1ed7c1ba1d0ce,
,,,,,,,0,119,119,125,1,X, , , , ,,2000,2,,001,2021-08-19_15h51.22.347,natb3,2021.2.3,Win32,60.08171113,611cecb5dbc0658aad64bf2d,611e07ecdcc96256ae8d5b80,611e6fd5c0f1ed7c1ba1d0ce,
,,,,space,0.4667,,0,120,120,169,1,L, , , , ,space,2500,2.5,,001,2021-08-19_15h51.22.347,natb3,2021.2.3,Win32,60.08171113,611cecb5dbc0658aad64bf2d,611e07ecdcc96256ae8d5b80,611e6fd5c0f1ed7c1ba1d0ce,
,,,,space,0.5081,,0,121,121,181,1,E, , , , ,space,1500,1.5,,001,2021-08-19_15h51.22.347,natb3,2021.2.3,Win32,60.08171113,611cecb5dbc0658aad64bf2d,611e07ecdcc96256ae8d5b80,611e6fd5c0f1ed7c1ba1d0ce,
,,,,space,0.4195,,0,122,122,105,1,R, , , , ,space,2500,2.5,,001,2021-08-19_15h51.22.347,natb3,2021.2.3,Win32,60.08171113,611cecb5dbc0658aad64bf2d,611e07ecdcc96256ae8d5b80,611e6fd5c0f1ed7c1ba1d0ce,
,,,,space,0.6413,,0,123,123,306,1,D, , , , ,space,2000,2,,001,2021-08-19_15h51.22.347,natb3,2021.2.3,Win32,60.08171113,611cecb5dbc0658aad64bf2d,611e07ecdcc96256ae8d5b80,611e6fd5c0f1ed7c1ba1d0ce,
,,,,,,,0,124,124,243,1,X, , , , ,,2500,2.5,,001,2021-08-19_15h51.22.347,natb3,2021.2.3,Win32,60.08171113,611cecb5dbc0658aad64bf2d,611e07ecdcc96256ae8d5b80,611e6fd5c0f1ed7c1ba1d0ce,
,,,,space,0.388,,0,125,125,297,1,U, , , , ,space,2000,2,,001,2021-08-19_15h51.22.347,natb3,2021.2.3,Win32,60.08171113,611cecb5dbc0658aad64bf2d,611e07ecdcc96256ae8d5b80,611e6fd5c0f1ed7c1ba1d0ce,
,,,,space,0.3564,,0,126,126,80,1,A, , , , ,space,2000,2,,001,2021-08-19_15h51.22.347,natb3,2021.2.3,Win32,60.08171113,611cecb5dbc0658aad64bf2d,611e07ecdcc96256ae8d5b80,611e6fd5c0f1ed7c1ba1d0ce,
,,,,,,,0,127,127,268,1,X,6, ,3, ,,2500,2.5,,001,2021-08-19_15h51.22.347,natb3,2021.2.3,Win32,60.08171113,611cecb5dbc0658aad64bf2d,611e07ecdcc96256ae8d5b80,611e6fd5c0f1ed7c1ba1d0ce,
,,,,space,0.4277,,0,128,128,163,1,G, , , , ,space,2500,2.5,,001,2021-08-19_15h51.22.347,natb3,2021.2.3,Win32,60.08171113,611cecb5dbc0658aad64bf2d,611e07ecdcc96256ae8d5b80,611e6fd5c0f1ed7c1ba1d0ce,
,,,,,,,0,129,129,69,1,X, , , , ,,1500,1.5,,001,2021-08-19_15h51.22.347,natb3,2021.2.3,Win32,60.08171113,611cecb5dbc0658aad64bf2d,611e07ecdcc96256ae8d5b80,611e6fd5c0f1ed7c1ba1d0ce,
,,,,,,,0,130,130,271,1,X, , , , ,,2500,2.5,,001,2021-08-19_15h51.22.347,natb3,2021.2.3,Win32,60.08171113,611cecb5dbc0658aad64bf2d,611e07ecdcc96256ae8d5b80,611e6fd5c0f1ed7c1ba1d0ce,
,,,,space,0.5183,,0,131,131,288,1,M, , , , ,space,1500,1.5,,001,2021-08-19_15h51.22.347,natb3,2021.2.3,Win32,60.08171113,611cecb5dbc0658aad64bf2d,611e07ecdcc96256ae8d5b80,611e6fd5c0f1ed7c1ba1d0ce,
,,,,space,0.435,,0,132,132,86,1,G, , , , ,space,2000,2,,001,2021-08-19_15h51.22.347,natb3,2021.2.3,Win32,60.08171113,611cecb5dbc0658aad64bf2d,611e07ecdcc96256ae8d5b80,611e6fd5c0f1ed7c1ba1d0ce,
,,,,space,0.5673,,0,133,133,136,1,Z, , , , ,space,2500,2.5,,001,2021-08-19_15h51.22.347,natb3,2021.2.3,Win32,60.08171113,611cecb5dbc0658aad64bf2d,611e07ecdcc96256ae8d5b80,611e6fd5c0f1ed7c1ba1d0ce,
,,,,space,0.3877,,0,134,134,154,1,I, , , , ,space,2500,2.5,,001,2021-08-19_15h51.22.347,natb3,2021.2.3,Win32,60.08171113,611cecb5dbc0658aad64bf2d,611e07ecdcc96256ae8d5b80,611e6fd5c0f1ed7c1ba1d0ce,
,,,,space,0.4353,,0,135,135,91,1,L, , , , ,space,2000,2,,001,2021-08-19_15h51.22.347,natb3,2021.2.3,Win32,60.08171113,611cecb5dbc0658aad64bf2d,611e07ecdcc96256ae8d5b80,611e6fd5c0f1ed7c1ba1d0ce,
,,,,,,,0,136,136,158,1,X, , , , ,,1500,1.5,,001,2021-08-19_15h51.22.347,natb3,2021.2.3,Win32,60.08171113,611cecb5dbc0658aad64bf2d,611e07ecdcc96256ae8d5b80,611e6fd5c0f1ed7c1ba1d0ce,
,,,,,,,0,137,137,148,1,X, , , , ,,2000,2,,001,2021-08-19_15h51.22.347,natb3,2021.2.3,Win32,60.08171113,611cecb5dbc0658aad64bf2d,611e07ecdcc96256ae8d5b80,611e6fd5c0f1ed7c1ba1d0ce,
,,,,,,,0,138,138,233,1,X, ,2, ,5,,1500,1.5,,001,2021-08-19_15h51.22.347,natb3,2021.2.3,Win32,60.08171113,611cecb5dbc0658aad64bf2d,611e07ecdcc96256ae8d5b80,611e6fd5c0f1ed7c1ba1d0ce,
,,,,,,,0,139,139,116,1,X, , , , ,,2000,2,,001,2021-08-19_15h51.22.347,natb3,2021.2.3,Win32,60.08171113,611cecb5dbc0658aad64bf2d,611e07ecdcc96256ae8d5b80,611e6fd5c0f1ed7c1ba1d0ce,
,,,,space,0.5007,,0,140,140,13,1,A, , , , ,space,2000,2,,001,2021-08-19_15h51.22.347,natb3,2021.2.3,Win32,60.08171113,611cecb5dbc0658aad64bf2d,611e07ecdcc96256ae8d5b80,611e6fd5c0f1ed7c1ba1d0ce,
,,,,space,0.5225,,0,141,141,334,1,O, , , , ,space,1500,1.5,,001,2021-08-19_15h51.22.347,natb3,2021.2.3,Win32,60.08171113,611cecb5dbc0658aad64bf2d,611e07ecdcc96256ae8d5b80,611e6fd5c0f1ed7c1ba1d0ce,
,,,,space,0.5065,,0,142,142,22,1,K, , , , ,space,2000,2,,001,2021-08-19_15h51.22.347,natb3,2021.2.3,Win32,60.08171113,611cecb5dbc0658aad64bf2d,611e07ecdcc96256ae8d5b80,611e6fd5c0f1ed7c1ba1d0ce,
,,,,space,0.4619,,0,143,143,208,1,B, , , , ,space,1500,1.5,,001,2021-08-19_15h51.22.347,natb3,2021.2.3,Win32,60.08171113,611cecb5dbc0658aad64bf2d,611e07ecdcc96256ae8d5b80,611e6fd5c0f1ed7c1ba1d0ce,
,,,,space,0.5503,,0,144,144,217,1,T, , , , ,space,2500,2.5,,001,2021-08-19_15h51.22.347,natb3,2021.2.3,Win32,60.08171113,611cecb5dbc0658aad64bf2d,611e07ecdcc96256ae8d5b80,611e6fd5c0f1ed7c1ba1d0ce,
,,,,space,0.3902,,0,145,145,67,1,Q, , , , ,space,2000,2,,001,2021-08-19_15h51.22.347,natb3,2021.2.3,Win32,60.08171113,611cecb5dbc0658aad64bf2d,611e07ecdcc96256ae8d5b80,611e6fd5c0f1ed7c1ba1d0ce,
,,,,space,0.4254,,0,146,146,283,1,C, , , , ,space,1500,1.5,,001,2021-08-19_15h51.22.347,natb3,2021.2.3,Win32,60.08171113,611cecb5dbc0658aad64bf2d,611e07ecdcc96256ae8d5b80,611e6fd5c0f1ed7c1ba1d0ce,
,,,,space,0.4012,,0,147,147,223,1,Q, , , , ,space,2000,2,,001,2021-08-19_15h51.22.347,natb3,2021.2.3,Win32,60.08171113,611cecb5dbc0658aad64bf2d,611e07ecdcc96256ae8d5b80,611e6fd5c0f1ed7c1ba1d0ce,
,,,,space,0.4467,,0,148,148,100,1,M, , , , ,space,2000,2,,001,2021-08-19_15h51.22.347,natb3,2021.2.3,Win32,60.08171113,611cecb5dbc0658aad64bf2d,611e07ecdcc96256ae8d5b80,611e6fd5c0f1ed7c1ba1d0ce,
,,,,space,0.417,,0,149,149,144,1,Q, , , , ,space,2500,2.5,,001,2021-08-19_15h51.22.347,natb3,2021.2.3,Win32,60.08171113,611cecb5dbc0658aad64bf2d,611e07ecdcc96256ae8d5b80,611e6fd5c0f1ed7c1ba1d0ce,
,,,,space,0.4108,,0,150,150,114,1,E, , , , ,space,2000,2,,001,2021-08-19_15h51.22.347,natb3,2021.2.3,Win32,60.08171113,611cecb5dbc0658aad64bf2d,611e07ecdcc96256ae8d5b80,611e6fd5c0f1ed7c1ba1d0ce,
,,,,space,0.4674,,0,151,151,265,1,I, , , , ,space,2000,2,,001,2021-08-19_15h51.22.347,natb3,2021.2.3,Win32,60.08171113,611cecb5dbc0658aad64bf2d,611e07ecdcc96256ae8d5b80,611e6fd5c0f1ed7c1ba1d0ce,
,,,,space,0.4915,,0,152,152,115,1,R, , , , ,space,1500,1.5,,001,2021-08-19_15h51.22.347,natb3,2021.2.3,Win32,60.08171113,611cecb5dbc0658aad64bf2d,611e07ecdcc96256ae8d5b80,611e6fd5c0f1ed7c1ba1d0ce,
,,,,space,0.5898,,0,153,153,192,1,A, , , , ,space,2000,2,,001,2021-08-19_15h51.22.347,natb3,2021.2.3,Win32,60.08171113,611cecb5dbc0658aad64bf2d,611e07ecdcc96256ae8d5b80,611e6fd5c0f1ed7c1ba1d0ce,
,,,,,,,0,154,154,66,1,X, ,4,7, ,,2000,2,,001,2021-08-19_15h51.22.347,natb3,2021.2.3,Win32,60.08171113,611cecb5dbc0658aad64bf2d,611e07ecdcc96256ae8d5b80,611e6fd5c0f1ed7c1ba1d0ce,
,,,,space,0.4555,,0,155,155,101,1,Q, , , , ,space,2500,2.5,,001,2021-08-19_15h51.22.347,natb3,2021.2.3,Win32,60.08171113,611cecb5dbc0658aad64bf2d,611e07ecdcc96256ae8d5b80,611e6fd5c0f1ed7c1ba1d0ce,
,,,,space,0.4164,,0,156,156,312,1,K, , , , ,space,2000,2,,001,2021-08-19_15h51.22.347,natb3,2021.2.3,Win32,60.08171113,611cecb5dbc0658aad64bf2d,611e07ecdcc96256ae8d5b80,611e6fd5c0f1ed7c1ba1d0ce,
,,,,space,0.3862,,0,157,157,230,1,U, , , , ,space,1500,1.5,,001,2021-08-19_15h51.22.347,natb3,2021.2.3,Win32,60.08171113,611cecb5dbc0658aad64bf2d,611e07ecdcc96256ae8d5b80,611e6fd5c0f1ed7c1ba1d0ce,
,,,,,,,0,158,158,182,1,X, , , , ,,1500,1.5,,001,2021-08-19_15h51.22.347,natb3,2021.2.3,Win32,60.08171113,611cecb5dbc0658aad64bf2d,611e07ecdcc96256ae8d5b80,611e6fd5c0f1ed7c1ba1d0ce,
,,,,space,0.4048,,0,159,159,210,1,M, , , , ,space,1500,1.5,,001,2021-08-19_15h51.22.347,natb3,2021.2.3,Win32,60.08171113,611cecb5dbc0658aad64bf2d,611e07ecdcc96256ae8d5b80,611e6fd5c0f1ed7c1ba1d0ce,
,,,,space,0.4351,,0,160,160,63,1,B, , , , ,space,2000,2,,001,2021-08-19_15h51.22.347,natb3,2021.2.3,Win32,60.08171113,611cecb5dbc0658aad64bf2d,611e07ecdcc96256ae8d5b80,611e6fd5c0f1ed7c1ba1d0ce,
,,,,space,0.4332,,0,161,161,183,1,R, , , , ,space,1500,1.5,,001,2021-08-19_15h51.22.347,natb3,2021.2.3,Win32,60.08171113,611cecb5dbc0658aad64bf2d,611e07ecdcc96256ae8d5b80,611e6fd5c0f1ed7c1ba1d0ce,
,,,,space,0.4138,,0,162,162,319,1,V, , , , ,space,2000,2,,001,2021-08-19_15h51.22.347,natb3,2021.2.3,Win32,60.08171113,611cecb5dbc0658aad64bf2d,611e07ecdcc96256ae8d5b80,611e6fd5c0f1ed7c1ba1d0ce,
,,,,space,0.4663,,0,163,163,95,1,V, , , , ,space,1500,1.5,,001,2021-08-19_15h51.22.347,natb3,2021.2.3,Win32,60.08171113,611cecb5dbc0658aad64bf2d,611e07ecdcc96256ae8d5b80,611e6fd5c0f1ed7c1ba1d0ce,
,,,,space,0.367,,0,164,164,303,1,A, , , , ,space,2000,2,,001,2021-08-19_15h51.22.347,natb3,2021.2.3,Win32,60.08171113,611cecb5dbc0658aad64bf2d,611e07ecdcc96256ae8d5b80,611e6fd5c0f1ed7c1ba1d0ce,
,,,,,,,0,165,165,129,1,X,2,3,5, ,,1500,1.5,,001,2021-08-19_15h51.22.347,natb3,2021.2.3,Win32,60.08171113,611cecb5dbc0658aad64bf2d,611e07ecdcc96256ae8d5b80,611e6fd5c0f1ed7c1ba1d0ce,
,,,,space,0.3804,,0,166,166,59,1,Z, , , , ,space,2000,2,,001,2021-08-19_15h51.22.347,natb3,2021.2.3,Win32,60.08171113,611cecb5dbc0658aad64bf2d,611e07ecdcc96256ae8d5b80,611e6fd5c0f1ed7c1ba1d0ce,
,,,,space,0.3433,space,0,167,167,330,1,T, , , , ,space,2500,2.5,,001,2021-08-19_15h51.22.347,natb3,2021.2.3,Win32,60.08171113,611cecb5dbc0658aad64bf2d,611e07ecdcc96256ae8d5b80,611e6fd5c0f1ed7c1ba1d0ce,5.3922
,,,,,,,0,168,168,252,1,X,3, ,6,9,,2000,2,,001,2021-08-19_15h51.22.347,natb3,2021.2.3,Win32,60.08171113,611cecb5dbc0658aad64bf2d,611e07ecdcc96256ae8d5b80,611e6fd5c0f1ed7c1ba1d0ce,
,,,,space,0.4146,,0,169,169,212,1,Q, , , , ,space,2500,2.5,,001,2021-08-19_15h51.22.347,natb3,2021.2.3,Win32,60.08171113,611cecb5dbc0658aad64bf2d,611e07ecdcc96256ae8d5b80,611e6fd5c0f1ed7c1ba1d0ce,
,,,,space,0.4237,,0,170,170,143,1,M, , , , ,space,2500,2.5,,001,2021-08-19_15h51.22.347,natb3,2021.2.3,Win32,60.08171113,611cecb5dbc0658aad64bf2d,611e07ecdcc96256ae8d5b80,611e6fd5c0f1ed7c1ba1d0ce,
,,,,space,0.3839,,0,171,171,279,1,K, , , , ,space,2500,2.5,,001,2021-08-19_15h51.22.347,natb3,2021.2.3,Win32,60.08171113,611cecb5dbc0658aad64bf2d,611e07ecdcc96256ae8d5b80,611e6fd5c0f1ed7c1ba1d0ce,
,,,,space,0.3479,,0,172,172,332,1,U, , , , ,space,2000,2,,001,2021-08-19_15h51.22.347,natb3,2021.2.3,Win32,60.08171113,611cecb5dbc0658aad64bf2d,611e07ecdcc96256ae8d5b80,611e6fd5c0f1ed7c1ba1d0ce,
,,,,space,0.4494,,0,173,173,12,1,X, , , , ,,1500,1.5,,001,2021-08-19_15h51.22.347,natb3,2021.2.3,Win32,60.08171113,611cecb5dbc0658aad64bf2d,611e07ecdcc96256ae8d5b80,611e6fd5c0f1ed7c1ba1d0ce,
,,,,space,0.4502,,0,174,174,286,1,N, , , , ,space,1500,1.5,,001,2021-08-19_15h51.22.347,natb3,2021.2.3,Win32,60.08171113,611cecb5dbc0658aad64bf2d,611e07ecdcc96256ae8d5b80,611e6fd5c0f1ed7c1ba1d0ce,
,,,,,,,0,175,175,7,1,X, , , , ,,1500,1.5,,001,2021-08-19_15h51.22.347,natb3,2021.2.3,Win32,60.08171113,611cecb5dbc0658aad64bf2d,611e07ecdcc96256ae8d5b80,611e6fd5c0f1ed7c1ba1d0ce,
,,,,,,,0,176,176,54,1,X, , , , ,,2000,2,,001,2021-08-19_15h51.22.347,natb3,2021.2.3,Win32,60.08171113,611cecb5dbc0658aad64bf2d,611e07ecdcc96256ae8d5b80,611e6fd5c0f1ed7c1ba1d0ce,
,,,,space,0.5174,,0,177,177,333,1,I, , , , ,space,1500,1.5,,001,2021-08-19_15h51.22.347,natb3,2021.2.3,Win32,60.08171113,611cecb5dbc0658aad64bf2d,611e07ecdcc96256ae8d5b80,611e6fd5c0f1ed7c1ba1d0ce,
,,,,space,0.4426,,0,178,178,61,1,C, , , , ,space,2000,2,,001,2021-08-19_15h51.22.347,natb3,2021.2.3,Win32,60.08171113,611cecb5dbc0658aad64bf2d,611e07ecdcc96256ae8d5b80,611e6fd5c0f1ed7c1ba1d0ce,
,,,,space,0.4858,,0,179,179,177,1,M, , , , ,space,2500,2.5,,001,2021-08-19_15h51.22.347,natb3,2021.2.3,Win32,60.08171113,611cecb5dbc0658aad64bf2d,611e07ecdcc96256ae8d5b80,611e6fd5c0f1ed7c1ba1d0ce,
,,,,,,,0,180,180,145,1,X, , , , ,,2000,2,,001,2021-08-19_15h51.22.347,natb3,2021.2.3,Win32,60.08171113,611cecb5dbc0658aad64bf2d,611e07ecdcc96256ae8d5b80,611e6fd5c0f1ed7c1ba1d0ce,
,,,,space,0.4679,,0,181,181,2,1,E, , , , ,space,2500,2.5,,001,2021-08-19_15h51.22.347,natb3,2021.2.3,Win32,60.08171113,611cecb5dbc0658aad64bf2d,611e07ecdcc96256ae8d5b80,611e6fd5c0f1ed7c1ba1d0ce,
,,,,,,,0,182,182,248,1,X, ,1,5, ,,1500,1.5,,001,2021-08-19_15h51.22.347,natb3,2021.2.3,Win32,60.08171113,611cecb5dbc0658aad64bf2d,611e07ecdcc96256ae8d5b80,611e6fd5c0f1ed7c1ba1d0ce,
,,,,space,0.5215,,0,183,183,178,1,Q, , , , ,space,1500,1.5,,001,2021-08-19_15h51.22.347,natb3,2021.2.3,Win32,60.08171113,611cecb5dbc0658aad64bf2d,611e07ecdcc96256ae8d5b80,611e6fd5c0f1ed7c1ba1d0ce,
,,,,,,,0,184,184,102,1,X, ,6, , ,,1500,1.5,,001,2021-08-19_15h51.22.347,natb3,2021.2.3,Win32,60.08171113,611cecb5dbc0658aad64bf2d,611e07ecdcc96256ae8d5b80,611e6fd5c0f1ed7c1ba1d0ce,
,,,,,,,0,185,185,153,1,X,4,7, ,6,,2000,2,,001,2021-08-19_15h51.22.347,natb3,2021.2.3,Win32,60.08171113,611cecb5dbc0658aad64bf2d,611e07ecdcc96256ae8d5b80,611e6fd5c0f1ed7c1ba1d0ce,
,,,,space,0.5766,,0,186,186,36,1,W, , , , ,space,2000,2,,001,2021-08-19_15h51.22.347,natb3,2021.2.3,Win32,60.08171113,611cecb5dbc0658aad64bf2d,611e07ecdcc96256ae8d5b80,611e6fd5c0f1ed7c1ba1d0ce,
,,,,,,,0,187,187,295,1,X,8,7,5, ,,2500,2.5,,001,2021-08-19_15h51.22.347,natb3,2021.2.3,Win32,60.08171113,611cecb5dbc0658aad64bf2d,611e07ecdcc96256ae8d5b80,611e6fd5c0f1ed7c1ba1d0ce,
,,,,,,,0,188,188,311,1,X,1,2,7,3,,2500,2.5,,001,2021-08-19_15h51.22.347,natb3,2021.2.3,Win32,60.08171113,611cecb5dbc0658aad64bf2d,611e07ecdcc96256ae8d5b80,611e6fd5c0f1ed7c1ba1d0ce,
,,,,,,,0,189,189,322,1,X, , ,1,6,,2000,2,,001,2021-08-19_15h51.22.347,natb3,2021.2.3,Win32,60.08171113,611cecb5dbc0658aad64bf2d,611e07ecdcc96256ae8d5b80,611e6fd5c0f1ed7c1ba1d0ce,
,,,,space,0.4387,,0,190,190,64,1,N, , , , ,space,2000,2,,001,2021-08-19_15h51.22.347,natb3,2021.2.3,Win32,60.08171113,611cecb5dbc0658aad64bf2d,611e07ecdcc96256ae8d5b80,611e6fd5c0f1ed7c1ba1d0ce,
,,,,space,0.4156,,0,191,191,225,1,E, , , , ,space,2000,2,,001,2021-08-19_15h51.22.347,natb3,2021.2.3,Win32,60.08171113,611cecb5dbc0658aad64bf2d,611e07ecdcc96256ae8d5b80,611e6fd5c0f1ed7c1ba1d0ce,
,,,,space,0.4386,,0,192,192,26,1,C, , , , ,space,2000,2,,001,2021-08-19_15h51.22.347,natb3,2021.2.3,Win32,60.08171113,611cecb5dbc0658aad64bf2d,611e07ecdcc96256ae8d5b80,611e6fd5c0f1ed7c1ba1d0ce,
,,,,space,0.4178,,0,193,193,48,1,A, , , , ,space,2500,2.5,,001,2021-08-19_15h51.22.347,natb3,2021.2.3,Win32,60.08171113,611cecb5dbc0658aad64bf2d,611e07ecdcc96256ae8d5b80,611e6fd5c0f1ed7c1ba1d0ce,
,,,,space,0.3827,,0,194,194,29,1,B, , , , ,space,1500,1.5,,001,2021-08-19_15h51.22.347,natb3,2021.2.3,Win32,60.08171113,611cecb5dbc0658aad64bf2d,611e07ecdcc96256ae8d5b80,611e6fd5c0f1ed7c1ba1d0ce,
,,,,space,0.3545,,0,195,195,237,1,S, , , , ,space,1500,1.5,,001,2021-08-19_15h51.22.347,natb3,2021.2.3,Win32,60.08171113,611cecb5dbc0658aad64bf2d,611e07ecdcc96256ae8d5b80,611e6fd5c0f1ed7c1ba1d0ce,
,,,,space,0.3342,,0,196,196,88,1,J, , , , ,space,2500,2.5,,001,2021-08-19_15h51.22.347,natb3,2021.2.3,Win32,60.08171113,611cecb5dbc0658aad64bf2d,611e07ecdcc96256ae8d5b80,611e6fd5c0f1ed7c1ba1d0ce,
,,,,space,0.4158,,0,197,197,245,1,K, , , , ,space,2000,2,,001,2021-08-19_15h51.22.347,natb3,2021.2.3,Win32,60.08171113,611cecb5dbc0658aad64bf2d,611e07ecdcc96256ae8d5b80,611e6fd5c0f1ed7c1ba1d0ce,
,,,,space,0.3826,,0,198,198,165,1,J, , , , ,space,2500,2.5,,001,2021-08-19_15h51.22.347,natb3,2021.2.3,Win32,60.08171113,611cecb5dbc0658aad64bf2d,611e07ecdcc96256ae8d5b80,611e6fd5c0f1ed7c1ba1d0ce,
,,,,space,0.2849,,0,199,199,291,1,X, , , , ,,2000,2,,001,2021-08-19_15h51.22.347,natb3,2021.2.3,Win32,60.08171113,611cecb5dbc0658aad64bf2d,611e07ecdcc96256ae8d5b80,611e6fd5c0f1ed7c1ba1d0ce,
,,,,space,0.3156,,0,200,200,131,1,G, , , , ,space,1500,1.5,,001,2021-08-19_15h51.22.347,natb3,2021.2.3,Win32,60.08171113,611cecb5dbc0658aad64bf2d,611e07ecdcc96256ae8d5b80,611e6fd5c0f1ed7c1ba1d0ce,
,,,,space,0.3711,,0,201,201,42,1,U, , , , ,space,1500,1.5,,001,2021-08-19_15h51.22.347,natb3,2021.2.3,Win32,60.08171113,611cecb5dbc0658aad64bf2d,611e07ecdcc96256ae8d5b80,611e6fd5c0f1ed7c1ba1d0ce,
,,,,,,,0,202,202,259,1,X,8, , ,3,,2500,2.5,,001,2021-08-19_15h51.22.347,natb3,2021.2.3,Win32,60.08171113,611cecb5dbc0658aad64bf2d,611e07ecdcc96256ae8d5b80,611e6fd5c0f1ed7c1ba1d0ce,
,,,,space,0.4316,,0,203,203,140,1,B, , , , ,space,2500,2.5,,001,2021-08-19_15h51.22.347,natb3,2021.2.3,Win32,60.08171113,611cecb5dbc0658aad64bf2d,611e07ecdcc96256ae8d5b80,611e6fd5c0f1ed7c1ba1d0ce,
,,,,space,0.4875,,0,204,204,30,1,N, , , , ,space,2500,2.5,,001,2021-08-19_15h51.22.347,natb3,2021.2.3,Win32,60.08171113,611cecb5dbc0658aad64bf2d,611e07ecdcc96256ae8d5b80,611e6fd5c0f1ed7c1ba1d0ce,
,,,,space,0.4116,,0,205,205,321,1,N, , , , ,space,2000,2,,001,2021-08-19_15h51.22.347,natb3,2021.2.3,Win32,60.08171113,611cecb5dbc0658aad64bf2d,611e07ecdcc96256ae8d5b80,611e6fd5c0f1ed7c1ba1d0ce,
,,,,space,0.4156,,0,206,206,300,1,O, , , , ,space,2500,2.5,,001,2021-08-19_15h51.22.347,natb3,2021.2.3,Win32,60.08171113,611cecb5dbc0658aad64bf2d,611e07ecdcc96256ae8d5b80,611e6fd5c0f1ed7c1ba1d0ce,
,,,,space,0.4083,,0,207,207,196,1,F, , , , ,space,1500,1.5,,001,2021-08-19_15h51.22.347,natb3,2021.2.3,Win32,60.08171113,611cecb5dbc0658aad64bf2d,611e07ecdcc96256ae8d5b80,611e6fd5c0f1ed7c1ba1d0ce,
,,,,space,0.3345,,0,208,208,62,1,V, , , , ,space,1500,1.5,,001,2021-08-19_15h51.22.347,natb3,2021.2.3,Win32,60.08171113,611cecb5dbc0658aad64bf2d,611e07ecdcc96256ae8d5b80,611e6fd5c0f1ed7c1ba1d0ce,
,,,,space,0.3865,,0,209,209,186,1,U, , , , ,space,2500,2.5,,001,2021-08-19_15h51.22.347,natb3,2021.2.3,Win32,60.08171113,611cecb5dbc0658aad64bf2d,611e07ecdcc96256ae8d5b80,611e6fd5c0f1ed7c1ba1d0ce,
,,,,space,0.4,,0,210,210,25,1,Z, , , , ,space,2500,2.5,,001,2021-08-19_15h51.22.347,natb3,2021.2.3,Win32,60.08171113,611cecb5dbc0658aad64bf2d,611e07ecdcc96256ae8d5b80,611e6fd5c0f1ed7c1ba1d0ce,
,,,,,,,0,211,211,313,1,X, , , , ,,2500,2.5,,001,2021-08-19_15h51.22.347,natb3,2021.2.3,Win32,60.08171113,611cecb5dbc0658aad64bf2d,611e07ecdcc96256ae8d5b80,611e6fd5c0f1ed7c1ba1d0ce,
,,,,space,0.3943,,0,212,212,209,1,N, , , , ,space,2000,2,,001,2021-08-19_15h51.22.347,natb3,2021.2.3,Win32,60.08171113,611cecb5dbc0658aad64bf2d,611e07ecdcc96256ae8d5b80,611e6fd5c0f1ed7c1ba1d0ce,
,,,,space,0.6223,,0,213,213,157,1,A, , , , ,space,2500,2.5,,001,2021-08-19_15h51.22.347,natb3,2021.2.3,Win32,60.08171113,611cecb5dbc0658aad64bf2d,611e07ecdcc96256ae8d5b80,611e6fd5c0f1ed7c1ba1d0ce,
,,,,space,0.4677,,0,214,214,117,1,T, , , , ,space,2500,2.5,,001,2021-08-19_15h51.22.347,natb3,2021.2.3,Win32,60.08171113,611cecb5dbc0658aad64bf2d,611e07ecdcc96256ae8d5b80,611e6fd5c0f1ed7c1ba1d0ce,
,,,,space,0.3704,,0,215,215,244,1,J, , , , ,space,1500,1.5,,001,2021-08-19_15h51.22.347,natb3,2021.2.3,Win32,60.08171113,611cecb5dbc0658aad64bf2d,611e07ecdcc96256ae8d5b80,611e6fd5c0f1ed7c1ba1d0ce,
,,,,space,0.3438,,0,216,216,185,1,Y, , , , ,space,2500,2.5,,001,2021-08-19_15h51.22.347,natb3,2021.2.3,Win32,60.08171113,611cecb5dbc0658aad64bf2d,611e07ecdcc96256ae8d5b80,611e6fd5c0f1ed7c1ba1d0ce,
,,,,space,0.4501,,0,217,217,52,1,F, , , , ,space,1500,1.5,,001,2021-08-19_15h51.22.347,natb3,2021.2.3,Win32,60.08171113,611cecb5dbc0658aad64bf2d,611e07ecdcc96256ae8d5b80,611e6fd5c0f1ed7c1ba1d0ce,
,,,,,,,0,218,218,82,1,X,4,6,1,7,,2000,2,,001,2021-08-19_15h51.22.347,natb3,2021.2.3,Win32,60.08171113,611cecb5dbc0658aad64bf2d,611e07ecdcc96256ae8d5b80,611e6fd5c0f1ed7c1ba1d0ce,
,,,,space,0.6615,,0,219,219,49,1,S, , , , ,space,1500,1.5,,001,2021-08-19_15h51.22.347,natb3,2021.2.3,Win32,60.08171113,611cecb5dbc0658aad64bf2d,611e07ecdcc96256ae8d5b80,611e6fd5c0f1ed7c1ba1d0ce,
,,,,space,0.477,,0,220,220,152,1,U, , , , ,space,2000,2,,001,2021-08-19_15h51.22.347,natb3,2021.2.3,Win32,60.08171113,611cecb5dbc0658aad64bf2d,611e07ecdcc96256ae8d5b80,611e6fd5c0f1ed7c1ba1d0ce,
,,,,space,0.3174,,0,221,221,159,1,S, , , , ,space,2500,2.5,,001,2021-08-19_15h51.22.347,natb3,2021.2.3,Win32,60.08171113,611cecb5dbc0658aad64bf2d,611e07ecdcc96256ae8d5b80,611e6fd5c0f1ed7c1ba1d0ce,
,,,,space,0.3876,,0,222,222,281,1,Z, , , , ,space,1500,1.5,,001,2021-08-19_15h51.22.347,natb3,2021.2.3,Win32,60.08171113,611cecb5dbc0658aad64bf2d,611e07ecdcc96256ae8d5b80,611e6fd5c0f1ed7c1ba1d0ce,
,,,,space,0.3742,,0,223,223,50,1,D, , , , ,space,1500,1.5,,001,2021-08-19_15h51.22.347,natb3,2021.2.3,Win32,60.08171113,611cecb5dbc0658aad64bf2d,611e07ecdcc96256ae8d5b80,611e6fd5c0f1ed7c1ba1d0ce,
,,,,space,0.4172,,0,224,224,124,1,P, , , , ,space,2000,2,,001,2021-08-19_15h51.22.347,natb3,2021.2.3,Win32,60.08171113,611cecb5dbc0658aad64bf2d,611e07ecdcc96256ae8d5b80,611e6fd5c0f1ed7c1ba1d0ce,
,,,,space,0.3356,,0,225,225,189,1,O, , , , ,space,1500,1.5,,001,2021-08-19_15h51.22.347,natb3,2021.2.3,Win32,60.08171113,611cecb5dbc0658aad64bf2d,611e07ecdcc96256ae8d5b80,611e6fd5c0f1ed7c1ba1d0ce,
,,,,,,,0,226,226,187,1,X, ,3,7,4,,1500,1.5,,001,2021-08-19_15h51.22.347,natb3,2021.2.3,Win32,60.08171113,611cecb5dbc0658aad64bf2d,611e07ecdcc96256ae8d5b80,611e6fd5c0f1ed7c1ba1d0ce,
,,,,space,0.5731,,0,227,227,241,1,G, , , , ,space,2500,2.5,,001,2021-08-19_15h51.22.347,natb3,2021.2.3,Win32,60.08171113,611cecb5dbc0658aad64bf2d,611e07ecdcc96256ae8d5b80,611e6fd5c0f1ed7c1ba1d0ce,
,,,,space,0.4503,,0,228,228,130,1,F, , , , ,space,2000,2,,001,2021-08-19_15h51.22.347,natb3,2021.2.3,Win32,60.08171113,611cecb5dbc0658aad64bf2d,611e07ecdcc96256ae8d5b80,611e6fd5c0f1ed7c1ba1d0ce,
,,,,space,0.4019,,0,229,229,71,1,R, , , , ,space,2500,2.5,,001,2021-08-19_15h51.22.347,natb3,2021.2.3,Win32,60.08171113,611cecb5dbc0658aad64bf2d,611e07ecdcc96256ae8d5b80,611e6fd5c0f1ed7c1ba1d0ce,
,,,,space,0.4441,,0,230,230,27,1,X,5, ,1,3,,1500,1.5,,001,2021-08-19_15h51.22.347,natb3,2021.2.3,Win32,60.08171113,611cecb5dbc0658aad64bf2d,611e07ecdcc96256ae8d5b80,611e6fd5c0f1ed7c1ba1d0ce,
,,,,space,0.3317,,0,231,231,304,1,S, , , , ,space,2000,2,,001,2021-08-19_15h51.22.347,natb3,2021.2.3,Win32,60.08171113,611cecb5dbc0658aad64bf2d,611e07ecdcc96256ae8d5b80,611e6fd5c0f1ed7c1ba1d0ce,
,,,,space,0.3349,,0,232,232,195,1,X, , , , ,,1500,1.5,,001,2021-08-19_15h51.22.347,natb3,2021.2.3,Win32,60.08171113,611cecb5dbc0658aad64bf2d,611e07ecdcc96256ae8d5b80,611e6fd5c0f1ed7c1ba1d0ce,
,,,,space,0.3545,,0,233,233,292,1,E, , , , ,space,2000,2,,001,2021-08-19_15h51.22.347,natb3,2021.2.3,Win32,60.08171113,611cecb5dbc0658aad64bf2d,611e07ecdcc96256ae8d5b80,611e6fd5c0f1ed7c1ba1d0ce,
,,,,space,0.4168,,0,234,234,188,1,I, , , , ,space,2500,2.5,,001,2021-08-19_15h51.22.347,natb3,2021.2.3,Win32,60.08171113,611cecb5dbc0658aad64bf2d,611e07ecdcc96256ae8d5b80,611e6fd5c0f1ed7c1ba1d0ce,
,,,,space,0.3667,,0,235,235,235,1,A, , , , ,space,1500,1.5,,001,2021-08-19_15h51.22.347,natb3,2021.2.3,Win32,60.08171113,611cecb5dbc0658aad64bf2d,611e07ecdcc96256ae8d5b80,611e6fd5c0f1ed7c1ba1d0ce,
,,,,space,0.4203,,0,236,236,326,1,W, , , , ,space,2000,2,,001,2021-08-19_15h51.22.347,natb3,2021.2.3,Win32,60.08171113,611cecb5dbc0658aad64bf2d,611e07ecdcc96256ae8d5b80,611e6fd5c0f1ed7c1ba1d0ce,
,,,,space,0.4067,,0,237,237,308,1,G, , , , ,space,1500,1.5,,001,2021-08-19_15h51.22.347,natb3,2021.2.3,Win32,60.08171113,611cecb5dbc0658aad64bf2d,611e07ecdcc96256ae8d5b80,611e6fd5c0f1ed7c1ba1d0ce,
,,,,space,0.3756,,0,238,238,94,1,C, , , , ,space,2000,2,,001,2021-08-19_15h51.22.347,natb3,2021.2.3,Win32,60.08171113,611cecb5dbc0658aad64bf2d,611e07ecdcc96256ae8d5b80,611e6fd5c0f1ed7c1ba1d0ce,
,,,,space,0.4073,,0,239,239,267,1,P, , , , ,space,2000,2,,001,2021-08-19_15h51.22.347,natb3,2021.2.3,Win32,60.08171113,611cecb5dbc0658aad64bf2d,611e07ecdcc96256ae8d5b80,611e6fd5c0f1ed7c1ba1d0ce,
,,,,space,0.524,,0,240,240,44,1,I, , , , ,space,2500,2.5,,001,2021-08-19_15h51.22.347,natb3,2021.2.3,Win32,60.08171113,611cecb5dbc0658aad64bf2d,611e07ecdcc96256ae8d5b80,611e6fd5c0f1ed7c1ba1d0ce,
,,,,space,0.486,,0,241,241,298,1,I, , , , ,space,2000,2,,001,2021-08-19_15h51.22.347,natb3,2021.2.3,Win32,60.08171113,611cecb5dbc0658aad64bf2d,611e07ecdcc96256ae8d5b80,611e6fd5c0f1ed7c1ba1d0ce,
,,,,space,0.5784,,0,242,242,104,1,E, , , , ,space,2000,2,,001,2021-08-19_15h51.22.347,natb3,2021.2.3,Win32,60.08171113,611cecb5dbc0658aad64bf2d,611e07ecdcc96256ae8d5b80,611e6fd5c0f1ed7c1ba1d0ce,
,,,,space,0.4682,,0,243,243,261,1,T, , , , ,space,2000,2,,001,2021-08-19_15h51.22.347,natb3,2021.2.3,Win32,60.08171113,611cecb5dbc0658aad64bf2d,611e07ecdcc96256ae8d5b80,611e6fd5c0f1ed7c1ba1d0ce,
,,,,space,0.3688,,0,244,244,293,1,R, , , , ,space,2500,2.5,,001,2021-08-19_15h51.22.347,natb3,2021.2.3,Win32,60.08171113,611cecb5dbc0658aad64bf2d,611e07ecdcc96256ae8d5b80,611e6fd5c0f1ed7c1ba1d0ce,
,,,,space,0.4002,,0,245,245,215,1,E, , , , ,space,2500,2.5,,001,2021-08-19_15h51.22.347,natb3,2021.2.3,Win32,60.08171113,611cecb5dbc0658aad64bf2d,611e07ecdcc96256ae8d5b80,611e6fd5c0f1ed7c1ba1d0ce,
,,,,space,0.4435,,0,246,246,310,1,J, , , , ,space,2500,2.5,,001,2021-08-19_15h51.22.347,natb3,2021.2.3,Win32,60.08171113,611cecb5dbc0658aad64bf2d,611e07ecdcc96256ae8d5b80,611e6fd5c0f1ed7c1ba1d0ce,
,,,,space,0.4331,,0,247,247,262,1,Y, , , , ,space,2500,2.5,,001,2021-08-19_15h51.22.347,natb3,2021.2.3,Win32,60.08171113,611cecb5dbc0658aad64bf2d,611e07ecdcc96256ae8d5b80,611e6fd5c0f1ed7c1ba1d0ce,
,,,,space,0.4041,,0,248,248,256,1,Q, , , , ,space,2000,2,,001,2021-08-19_15h51.22.347,natb3,2021.2.3,Win32,60.08171113,611cecb5dbc0658aad64bf2d,611e07ecdcc96256ae8d5b80,611e6fd5c0f1ed7c1ba1d0ce,
,,,,,,,0,249,249,277,1,X,8,5, ,2,,2000,2,,001,2021-08-19_15h51.22.347,natb3,2021.2.3,Win32,60.08171113,611cecb5dbc0658aad64bf2d,611e07ecdcc96256ae8d5b80,611e6fd5c0f1ed7c1ba1d0ce,
,,,,space,0.3386,,0,250,250,85,1,F, , , , ,space,2500,2.5,,001,2021-08-19_15h51.22.347,natb3,2021.2.3,Win32,60.08171113,611cecb5dbc0658aad64bf2d,611e07ecdcc96256ae8d5b80,611e6fd5c0f1ed7c1ba1d0ce,
,,,,space,0.3508,,0,251,251,151,1,Y, , , , ,space,2500,2.5,,001,2021-08-19_15h51.22.347,natb3,2021.2.3,Win32,60.08171113,611cecb5dbc0658aad64bf2d,611e07ecdcc96256ae8d5b80,611e6fd5c0f1ed7c1ba1d0ce,
,,,,space,0.3161,,0,252,252,92,1,Z, , , , ,space,1500,1.5,,001,2021-08-19_15h51.22.347,natb3,2021.2.3,Win32,60.08171113,611cecb5dbc0658aad64bf2d,611e07ecdcc96256ae8d5b80,611e6fd5c0f1ed7c1ba1d0ce,
,,,,,,,0,253,253,43,1,X, ,6, ,2,,2500,2.5,,001,2021-08-19_15h51.22.347,natb3,2021.2.3,Win32,60.08171113,611cecb5dbc0658aad64bf2d,611e07ecdcc96256ae8d5b80,611e6fd5c0f1ed7c1ba1d0ce,
,,,,space,0.4311,,0,254,254,47,1,P, , , , ,space,2000,2,,001,2021-08-19_15h51.22.347,natb3,2021.2.3,Win32,60.08171113,611cecb5dbc0658aad64bf2d,611e07ecdcc96256ae8d5b80,611e6fd5c0f1ed7c1ba1d0ce,
,,,,,,,0,255,255,107,1,X,9,3, ,2,,2000,2,,001,2021-08-19_15h51.22.347,natb3,2021.2.3,Win32,60.08171113,611cecb5dbc0658aad64bf2d,611e07ecdcc96256ae8d5b80,611e6fd5c0f1ed7c1ba1d0ce,
,,,,space,0.5182,,0,256,256,112,1,Q, , , , ,space,2500,2.5,,001,2021-08-19_15h51.22.347,natb3,2021.2.3,Win32,60.08171113,611cecb5dbc0658aad64bf2d,611e07ecdcc96256ae8d5b80,611e6fd5c0f1ed7c1ba1d0ce,
,,,,space,0.4579,,0,257,257,146,1,W, , , , ,space,1500,1.5,,001,2021-08-19_15h51.22.347,natb3,2021.2.3,Win32,60.08171113,611cecb5dbc0658aad64bf2d,611e07ecdcc96256ae8d5b80,611e6fd5c0f1ed7c1ba1d0ce,
,,,,space,0.44,,0,258,258,166,1,X, , , , ,,2000,2,,001,2021-08-19_15h51.22.347,natb3,2021.2.3,Win32,60.08171113,611cecb5dbc0658aad64bf2d,611e07ecdcc96256ae8d5b80,611e6fd5c0f1ed7c1ba1d0ce,
,,,,space,0.3415,,0,259,259,83,1,D, , , , ,space,2000,2,,001,2021-08-19_15h51.22.347,natb3,2021.2.3,Win32,60.08171113,611cecb5dbc0658aad64bf2d,611e07ecdcc96256ae8d5b80,611e6fd5c0f1ed7c1ba1d0ce,
,,,,space,0.4314,,0,260,260,176,1,N, , , , ,space,1500,1.5,,001,2021-08-19_15h51.22.347,natb3,2021.2.3,Win32,60.08171113,611cecb5dbc0658aad64bf2d,611e07ecdcc96256ae8d5b80,611e6fd5c0f1ed7c1ba1d0ce,
,,,,space,0.4863,,0,261,261,68,1,W, , , , ,space,2500,2.5,,001,2021-08-19_15h51.22.347,natb3,2021.2.3,Win32,60.08171113,611cecb5dbc0658aad64bf2d,611e07ecdcc96256ae8d5b80,611e6fd5c0f1ed7c1ba1d0ce,
,,,,space,0.5874,,0,262,262,257,1,W, , , , ,space,2000,2,,001,2021-08-19_15h51.22.347,natb3,2021.2.3,Win32,60.08171113,611cecb5dbc0658aad64bf2d,611e07ecdcc96256ae8d5b80,611e6fd5c0f1ed7c1ba1d0ce,
,,,,space,0.4238,,0,263,263,270,1,S, , , , ,space,1500,1.5,,001,2021-08-19_15h51.22.347,natb3,2021.2.3,Win32,60.08171113,611cecb5dbc0658aad64bf2d,611e07ecdcc96256ae8d5b80,611e6fd5c0f1ed7c1ba1d0ce,
,,,,space,0.7486,,0,264,264,331,1,Y, , , , ,space,2500,2.5,,001,2021-08-19_15h51.22.347,natb3,2021.2.3,Win32,60.08171113,611cecb5dbc0658aad64bf2d,611e07ecdcc96256ae8d5b80,611e6fd5c0f1ed7c1ba1d0ce,
,,,,space,0.3503,,0,265,265,150,1,T, , , , ,space,2500,2.5,,001,2021-08-19_15h51.22.347,natb3,2021.2.3,Win32,60.08171113,611cecb5dbc0658aad64bf2d,611e07ecdcc96256ae8d5b80,611e6fd5c0f1ed7c1ba1d0ce,
,,,,space,0.5477,,0,266,266,123,1,O, , , , ,space,1500,1.5,,001,2021-08-19_15h51.22.347,natb3,2021.2.3,Win32,60.08171113,611cecb5dbc0658aad64bf2d,611e07ecdcc96256ae8d5b80,611e6fd5c0f1ed7c1ba1d0ce,
,,,,space,0.3284,,0,267,267,222,1,O, , , , ,space,2000,2,,001,2021-08-19_15h51.22.347,natb3,2021.2.3,Win32,60.08171113,611cecb5dbc0658aad64bf2d,611e07ecdcc96256ae8d5b80,611e6fd5c0f1ed7c1ba1d0ce,
,,,,space,0.4001,,0,268,268,84,1,X, , , , ,,2000,2,,001,2021-08-19_15h51.22.347,natb3,2021.2.3,Win32,60.08171113,611cecb5dbc0658aad64bf2d,611e07ecdcc96256ae8d5b80,611e6fd5c0f1ed7c1ba1d0ce,
,,,,space,0.3561,,0,269,269,127,1,S, , , , ,space,2500,2.5,,001,2021-08-19_15h51.22.347,natb3,2021.2.3,Win32,60.08171113,611cecb5dbc0658aad64bf2d,611e07ecdcc96256ae8d5b80,611e6fd5c0f1ed7c1ba1d0ce,
,,,,space,0.3382,,0,270,270,108,1,Y, , , , ,space,2500,2.5,,001,2021-08-19_15h51.22.347,natb3,2021.2.3,Win32,60.08171113,611cecb5dbc0658aad64bf2d,611e07ecdcc96256ae8d5b80,611e6fd5c0f1ed7c1ba1d0ce,
,,,,,,,0,271,271,299,1,X, , , , ,,2500,2.5,,001,2021-08-19_15h51.22.347,natb3,2021.2.3,Win32,60.08171113,611cecb5dbc0658aad64bf2d,611e07ecdcc96256ae8d5b80,611e6fd5c0f1ed7c1ba1d0ce,
,,,,space,0.3859,,0,272,272,234,1,P, , , , ,space,2000,2,,001,2021-08-19_15h51.22.347,natb3,2021.2.3,Win32,60.08171113,611cecb5dbc0658aad64bf2d,611e07ecdcc96256ae8d5b80,611e6fd5c0f1ed7c1ba1d0ce,
,,,,space,0.4343,,0,273,273,38,1,R, , , , ,space,2500,2.5,,001,2021-08-19_15h51.22.347,natb3,2021.2.3,Win32,60.08171113,611cecb5dbc0658aad64bf2d,611e07ecdcc96256ae8d5b80,611e6fd5c0f1ed7c1ba1d0ce,
,,,,space,0.4169,,0,274,274,202,1,L, , , , ,space,2500,2.5,,001,2021-08-19_15h51.22.347,natb3,2021.2.3,Win32,60.08171113,611cecb5dbc0658aad64bf2d,611e07ecdcc96256ae8d5b80,611e6fd5c0f1ed7c1ba1d0ce,
,,,,,,,0,275,275,60,1,X,7,3,5, ,,1500,1.5,,001,2021-08-19_15h51.22.347,natb3,2021.2.3,Win32,60.08171113,611cecb5dbc0658aad64bf2d,611e07ecdcc96256ae8d5b80,611e6fd5c0f1ed7c1ba1d0ce,
,,,,space,0.4371,,0,276,276,156,1,P, , , , ,space,1500,1.5,,001,2021-08-19_15h51.22.347,natb3,2021.2.3,Win32,60.08171113,611cecb5dbc0658aad64bf2d,611e07ecdcc96256ae8d5b80,611e6fd5c0f1ed7c1ba1d0ce,
,,,,space,0.425,,0,277,277,198,1,H, , , , ,space,2500,2.5,,001,2021-08-19_15h51.22.347,natb3,2021.2.3,Win32,60.08171113,611cecb5dbc0658aad64bf2d,611e07ecdcc96256ae8d5b80,611e6fd5c0f1ed7c1ba1d0ce,
,,,,space,0.5511,,0,278,278,264,1,U, , , , ,space,2000,2,,001,2021-08-19_15h51.22.347,natb3,2021.2.3,Win32,60.08171113,611cecb5dbc0658aad64bf2d,611e07ecdcc96256ae8d5b80,611e6fd5c0f1ed7c1ba1d0ce,
,,,,space,0.3856,,0,279,279,16,1,D, , , , ,space,1500,1.5,,001,2021-08-19_15h51.22.347,natb3,2021.2.3,Win32,60.08171113,611cecb5dbc0658aad64bf2d,611e07ecdcc96256ae8d5b80,611e6fd5c0f1ed7c1ba1d0ce,
,,,,space,0.379,,0,280,280,37,1,E, , , , ,space,2500,2.5,,001,2021-08-19_15h51.22.347,natb3,2021.2.3,Win32,60.08171113,611cecb5dbc0658aad64bf2d,611e07ecdcc96256ae8d5b80,611e6fd5c0f1ed7c1ba1d0ce,
,,,,space,0.3516,,0,281,281,41,1,Y, , , , ,space,2500,2.5,,001,2021-08-19_15h51.22.347,natb3,2021.2.3,Win32,60.08171113,611cecb5dbc0658aad64bf2d,611e07ecdcc96256ae8d5b80,611e6fd5c0f1ed7c1ba1d0ce,
,,,,space,0.3818,,0,282,282,164,1,H, , , , ,space,2500,2.5,,001,2021-08-19_15h51.22.347,natb3,2021.2.3,Win32,60.08171113,611cecb5dbc0658aad64bf2d,611e07ecdcc96256ae8d5b80,611e6fd5c0f1ed7c1ba1d0ce,
,,,,space,0.3493,,0,283,283,213,1,X, , , , ,,2500,2.5,,001,2021-08-19_15h51.22.347,natb3,2021.2.3,Win32,60.08171113,611cecb5dbc0658aad64bf2d,611e07ecdcc96256ae8d5b80,611e6fd5c0f1ed7c1ba1d0ce,
,,,,space,0.4336,,0,284,284,6,1,Y, , , , ,space,2500,2.5,,001,2021-08-19_15h51.22.347,natb3,2021.2.3,Win32,60.08171113,611cecb5dbc0658aad64bf2d,611e07ecdcc96256ae8d5b80,611e6fd5c0f1ed7c1ba1d0ce,
,,,,space,0.3999,,0,285,285,77,1,O, , , , ,space,2000,2,,001,2021-08-19_15h51.22.347,natb3,2021.2.3,Win32,60.08171113,611cecb5dbc0658aad64bf2d,611e07ecdcc96256ae8d5b80,611e6fd5c0f1ed7c1ba1d0ce,
,,,,space,0.486,,0,286,286,307,1,F, , , , ,space,2500,2.5,,001,2021-08-19_15h51.22.347,natb3,2021.2.3,Win32,60.08171113,611cecb5dbc0658aad64bf2d,611e07ecdcc96256ae8d5b80,611e6fd5c0f1ed7c1ba1d0ce,
,,,,space,0.4507,,0,287,287,155,1,O, , , , ,space,1500,1.5,,001,2021-08-19_15h51.22.347,natb3,2021.2.3,Win32,60.08171113,611cecb5dbc0658aad64bf2d,611e07ecdcc96256ae8d5b80,611e6fd5c0f1ed7c1ba1d0ce,
,,,,space,0.3788,,0,288,288,266,1,O, , , , ,space,1500,1.5,,001,2021-08-19_15h51.22.347,natb3,2021.2.3,Win32,60.08171113,611cecb5dbc0658aad64bf2d,611e07ecdcc96256ae8d5b80,611e6fd5c0f1ed7c1ba1d0ce,
,,,,space,0.3235,,0,289,289,220,1,U, , , , ,space,2500,2.5,,001,2021-08-19_15h51.22.347,natb3,2021.2.3,Win32,60.08171113,611cecb5dbc0658aad64bf2d,611e07ecdcc96256ae8d5b80,611e6fd5c0f1ed7c1ba1d0ce,
,,,,,,,0,290,290,236,1,X,3, ,4,7,,2500,2.5,,001,2021-08-19_15h51.22.347,natb3,2021.2.3,Win32,60.08171113,611cecb5dbc0658aad64bf2d,611e07ecdcc96256ae8d5b80,611e6fd5c0f1ed7c1ba1d0ce,
,,,,,,,0,291,291,141,1,X,1, ,4,6,,1500,1.5,,001,2021-08-19_15h51.22.347,natb3,2021.2.3,Win32,60.08171113,611cecb5dbc0658aad64bf2d,611e07ecdcc96256ae8d5b80,611e6fd5c0f1ed7c1ba1d0ce,
,,,,space,0.496,,0,292,292,1,1,W, , , , ,space,2000,2,,001,2021-08-19_15h51.22.347,natb3,2021.2.3,Win32,60.08171113,611cecb5dbc0658aad64bf2d,611e07ecdcc96256ae8d5b80,611e6fd5c0f1ed7c1ba1d0ce,
,,,,space,0.5168,,0,293,293,73,1,Y, , , , ,space,2000,2,,001,2021-08-19_15h51.22.347,natb3,2021.2.3,Win32,60.08171113,611cecb5dbc0658aad64bf2d,611e07ecdcc96256ae8d5b80,611e6fd5c0f1ed7c1ba1d0ce,
,,,,space,0.4111,,0,294,294,172,1,C, , , , ,space,1500,1.5,,001,2021-08-19_15h51.22.347,natb3,2021.2.3,Win32,60.08171113,611cecb5dbc0658aad64bf2d,611e07ecdcc96256ae8d5b80,611e6fd5c0f1ed7c1ba1d0ce,
,,,,,,,0,295,295,171,1,X, , , , ,,1500,1.5,,001,2021-08-19_15h51.22.347,natb3,2021.2.3,Win32,60.08171113,611cecb5dbc0658aad64bf2d,611e07ecdcc96256ae8d5b80,611e6fd5c0f1ed7c1ba1d0ce,
,,,,space,0.6676,,0,296,296,120,1,U, , , , ,space,1500,1.5,,001,2021-08-19_15h51.22.347,natb3,2021.2.3,Win32,60.08171113,611cecb5dbc0658aad64bf2d,611e07ecdcc96256ae8d5b80,611e6fd5c0f1ed7c1ba1d0ce,
,,,,space,0.4161,,0,297,297,99,1,N, , , , ,space,2500,2.5,,001,2021-08-19_15h51.22.347,natb3,2021.2.3,Win32,60.08171113,611cecb5dbc0658aad64bf2d,611e07ecdcc96256ae8d5b80,611e6fd5c0f1ed7c1ba1d0ce,
,,,,space,0.5499,,0,298,298,190,1,P, , , , ,space,2000,2,,001,2021-08-19_15h51.22.347,natb3,2021.2.3,Win32,60.08171113,611cecb5dbc0658aad64bf2d,611e07ecdcc96256ae8d5b80,611e6fd5c0f1ed7c1ba1d0ce,
,,,,space,0.3685,,0,299,299,284,1,V, , , , ,space,2500,2.5,,001,2021-08-19_15h51.22.347,natb3,2021.2.3,Win32,60.08171113,611cecb5dbc0658aad64bf2d,611e07ecdcc96256ae8d5b80,611e6fd5c0f1ed7c1ba1d0ce,
,,,,,,,0,300,300,122,1,X,1, , ,8,,1500,1.5,,001,2021-08-19_15h51.22.347,natb3,2021.2.3,Win32,60.08171113,611cecb5dbc0658aad64bf2d,611e07ecdcc96256ae8d5b80,611e6fd5c0f1ed7c1ba1d0ce,
,,,,,,,0,301,301,203,1,X, , , , ,,2500,2.5,,001,2021-08-19_15h51.22.347,natb3,2021.2.3,Win32,60.08171113,611cecb5dbc0658aad64bf2d,611e07ecdcc96256ae8d5b80,611e6fd5c0f1ed7c1ba1d0ce,
,,,,space,0.5085,,0,302,302,240,1,F, , , , ,space,2500,2.5,,001,2021-08-19_15h51.22.347,natb3,2021.2.3,Win32,60.08171113,611cecb5dbc0658aad64bf2d,611e07ecdcc96256ae8d5b80,611e6fd5c0f1ed7c1ba1d0ce,
,,,,space,0.6002,,0,303,303,170,1,Z, , , , ,space,2000,2,,001,2021-08-19_15h51.22.347,natb3,2021.2.3,Win32,60.08171113,611cecb5dbc0658aad64bf2d,611e07ecdcc96256ae8d5b80,611e6fd5c0f1ed7c1ba1d0ce,
,,,,space,0.5562,,0,304,304,119,1,Y, , , , ,space,2500,2.5,,001,2021-08-19_15h51.22.347,natb3,2021.2.3,Win32,60.08171113,611cecb5dbc0658aad64bf2d,611e07ecdcc96256ae8d5b80,611e6fd5c0f1ed7c1ba1d0ce,
,,,,,,,0,305,305,179,1,X, ,9, ,2,,1500,1.5,,001,2021-08-19_15h51.22.347,natb3,2021.2.3,Win32,60.08171113,611cecb5dbc0658aad64bf2d,611e07ecdcc96256ae8d5b80,611e6fd5c0f1ed7c1ba1d0ce,
,,,,,,,0,306,306,74,1,X, ,4,3,2,,1500,1.5,,001,2021-08-19_15h51.22.347,natb3,2021.2.3,Win32,60.08171113,611cecb5dbc0658aad64bf2d,611e07ecdcc96256ae8d5b80,611e6fd5c0f1ed7c1ba1d0ce,
,,,,space,0.4296,,0,307,307,135,1,K, , , , ,space,1500,1.5,,001,2021-08-19_15h51.22.347,natb3,2021.2.3,Win32,60.08171113,611cecb5dbc0658aad64bf2d,611e07ecdcc96256ae8d5b80,611e6fd5c0f1ed7c1ba1d0ce,
,,,,space,0.4499,,0,308,308,285,1,B, , , , ,space,1500,1.5,,001,2021-08-19_15h51.22.347,natb3,2021.2.3,Win32,60.08171113,611cecb5dbc0658aad64bf2d,611e07ecdcc96256ae8d5b80,611e6fd5c0f1ed7c1ba1d0ce,
,,,,space,0.4325,,0,309,309,193,1,S, , , , ,space,2500,2.5,,001,2021-08-19_15h51.22.347,natb3,2021.2.3,Win32,60.08171113,611cecb5dbc0658aad64bf2d,611e07ecdcc96256ae8d5b80,611e6fd5c0f1ed7c1ba1d0ce,
,,,,space,0.3932,,0,310,310,251,1,B, , , , ,space,1500,1.5,,001,2021-08-19_15h51.22.347,natb3,2021.2.3,Win32,60.08171113,611cecb5dbc0658aad64bf2d,611e07ecdcc96256ae8d5b80,611e6fd5c0f1ed7c1ba1d0ce,
,,,,,,,0,311,311,325,1,X, , , , ,,2500,2.5,,001,2021-08-19_15h51.22.347,natb3,2021.2.3,Win32,60.08171113,611cecb5dbc0658aad64bf2d,611e07ecdcc96256ae8d5b80,611e6fd5c0f1ed7c1ba1d0ce,
,,,,space,0.5592,,0,312,312,224,1,W, , , , ,space,1500,1.5,,001,2021-08-19_15h51.22.347,natb3,2021.2.3,Win32,60.08171113,611cecb5dbc0658aad64bf2d,611e07ecdcc96256ae8d5b80,611e6fd5c0f1ed7c1ba1d0ce,
,,,,,,,0,313,313,23,1,X,1, ,5, ,,2000,2,,001,2021-08-19_15h51.22.347,natb3,2021.2.3,Win32,60.08171113,611cecb5dbc0658aad64bf2d,611e07ecdcc96256ae8d5b80,611e6fd5c0f1ed7c1ba1d0ce,
,,,,,,,0,314,314,287,1,X, ,2, ,9,,2000,2,,001,2021-08-19_15h51.22.347,natb3,2021.2.3,Win32,60.08171113,611cecb5dbc0658aad64bf2d,611e07ecdcc96256ae8d5b80,611e6fd5c0f1ed7c1ba1d0ce,
,,,,space,0.5001,,0,315,315,126,1,A, , , , ,space,2500,2.5,,001,2021-08-19_15h51.22.347,natb3,2021.2.3,Win32,60.08171113,611cecb5dbc0658aad64bf2d,611e07ecdcc96256ae8d5b80,611e6fd5c0f1ed7c1ba1d0ce,
,,,,,,,0,316,316,168,1,X, , , , ,,2500,2.5,,001,2021-08-19_15h51.22.347,natb3,2021.2.3,Win32,60.08171113,611cecb5dbc0658aad64bf2d,611e07ecdcc96256ae8d5b80,611e6fd5c0f1ed7c1ba1d0ce,
,,,,space,0.418,,0,317,317,323,1,M, , , , ,space,2500,2.5,,001,2021-08-19_15h51.22.347,natb3,2021.2.3,Win32,60.08171113,611cecb5dbc0658aad64bf2d,611e07ecdcc96256ae8d5b80,611e6fd5c0f1ed7c1ba1d0ce,
,,,,space,0.4317,,0,318,318,260,1,R, , , , ,space,2000,2,,001,2021-08-19_15h51.22.347,natb3,2021.2.3,Win32,60.08171113,611cecb5dbc0658aad64bf2d,611e07ecdcc96256ae8d5b80,611e6fd5c0f1ed7c1ba1d0ce,
,,,,space,0.3383,,0,319,319,238,1,D, , , , ,space,1500,1.5,,001,2021-08-19_15h51.22.347,natb3,2021.2.3,Win32,60.08171113,611cecb5dbc0658aad64bf2d,611e07ecdcc96256ae8d5b80,611e6fd5c0f1ed7c1ba1d0ce,
,,,,space,0.4228,,0,320,320,142,1,N, , , , ,space,2500,2.5,,001,2021-08-19_15h51.22.347,natb3,2021.2.3,Win32,60.08171113,611cecb5dbc0658aad64bf2d,611e07ecdcc96256ae8d5b80,611e6fd5c0f1ed7c1ba1d0ce,
,,,,space,0.4506,,0,321,321,149,1,R, , , , ,space,2000,2,,001,2021-08-19_15h51.22.347,natb3,2021.2.3,Win32,60.08171113,611cecb5dbc0658aad64bf2d,611e07ecdcc96256ae8d5b80,611e6fd5c0f1ed7c1ba1d0ce,
,,,,space,0.4171,,0,322,322,232,1,O, , , , ,space,2500,2.5,,001,2021-08-19_15h51.22.347,natb3,2021.2.3,Win32,60.08171113,611cecb5dbc0658aad64bf2d,611e07ecdcc96256ae8d5b80,611e6fd5c0f1ed7c1ba1d0ce,
,,,,space,0.3764,,0,323,323,294,1,T, , , , ,space,2000,2,,001,2021-08-19_15h51.22.347,natb3,2021.2.3,Win32,60.08171113,611cecb5dbc0658aad64bf2d,611e07ecdcc96256ae8d5b80,611e6fd5c0f1ed7c1ba1d0ce,
,,,,space,0.3832,,0,324,324,301,1,P, , , , ,space,1500,1.5,,001,2021-08-19_15h51.22.347,natb3,2021.2.3,Win32,60.08171113,611cecb5dbc0658aad64bf2d,611e07ecdcc96256ae8d5b80,611e6fd5c0f1ed7c1ba1d0ce,
,,,,space,0.333,,0,325,325,109,1,U, , , , ,space,1500,1.5,,001,2021-08-19_15h51.22.347,natb3,2021.2.3,Win32,60.08171113,611cecb5dbc0658aad64bf2d,611e07ecdcc96256ae8d5b80,611e6fd5c0f1ed7c1ba1d0ce,
,,,,space,0.3337,,0,326,326,57,1,K, , , , ,space,2500,2.5,,001,2021-08-19_15h51.22.347,natb3,2021.2.3,Win32,60.08171113,611cecb5dbc0658aad64bf2d,611e07ecdcc96256ae8d5b80,611e6fd5c0f1ed7c1ba1d0ce,
,,,,space,0.3326,,0,327,327,214,1,W, , , , ,space,2000,2,,001,2021-08-19_15h51.22.347,natb3,2021.2.3,Win32,60.08171113,611cecb5dbc0658aad64bf2d,611e07ecdcc96256ae8d5b80,611e6fd5c0f1ed7c1ba1d0ce,
,,,,space,0.3248,,0,328,328,5,1,T, , , , ,space,2000,2,,001,2021-08-19_15h51.22.347,natb3,2021.2.3,Win32,60.08171113,611cecb5dbc0658aad64bf2d,611e07ecdcc96256ae8d5b80,611e6fd5c0f1ed7c1ba1d0ce,
,,,,space,0.3862,,0,329,329,328,1,R, , , , ,space,1500,1.5,,001,2021-08-19_15h51.22.347,natb3,2021.2.3,Win32,60.08171113,611cecb5dbc0658aad64bf2d,611e07ecdcc96256ae8d5b80,611e6fd5c0f1ed7c1ba1d0ce,
,,,,space,0.3113,,0,330,330,316,1,Z, , , , ,space,1500,1.5,,001,2021-08-19_15h51.22.347,natb3,2021.2.3,Win32,60.08171113,611cecb5dbc0658aad64bf2d,611e07ecdcc96256ae8d5b80,611e6fd5c0f1ed7c1ba1d0ce,
,,,,space,0.3347,,0,331,331,0,1,Q, , , , ,space,1500,1.5,,001,2021-08-19_15h51.22.347,natb3,2021.2.3,Win32,60.08171113,611cecb5dbc0658aad64bf2d,611e07ecdcc96256ae8d5b80,611e6fd5c0f1ed7c1ba1d0ce,
,,,,space,0.3337,,0,332,332,272,1,D, , , , ,space,2000,2,,001,2021-08-19_15h51.22.347,natb3,2021.2.3,Win32,60.08171113,611cecb5dbc0658aad64bf2d,611e07ecdcc96256ae8d5b80,611e6fd5c0f1ed7c1ba1d0ce,
,,,,space,0.3749,,0,333,333,280,1,L, , , , ,space,1500,1.5,,001,2021-08-19_15h51.22.347,natb3,2021.2.3,Win32,60.08171113,611cecb5dbc0658aad64bf2d,611e07ecdcc96256ae8d5b80,611e6fd5c0f1ed7c1ba1d0ce,
,,,,space,0.3274,,0,334,334,317,1,C, , , , ,space,2000,2,,001,2021-08-19_15h51.22.347,natb3,2021.2.3,Win32,60.08171113,611cecb5dbc0658aad64bf2d,611e07ecdcc96256ae8d5b80,611e6fd5c0f1ed7c1ba1d0ce,
,,,,space,0.3599,,0,335,335,8,1,U, , , , ,space,1500,1.5,,001,2021-08-19_15h51.22.347,natb3,2021.2.3,Win32,60.08171113,611cecb5dbc0658aad64bf2d,611e07ecdcc96256ae8d5b80,611e6fd5c0f1ed7c1ba1d0ce,
