key_resp_2.keys,key_resp_2.rt,key_resp_3.keys,key_resp_3.rt,key_resp.keys,key_resp_4.keys,trials.thisRepN,trials.thisTrialN,trials.thisN,trials.thisIndex,trials.ran,stimulus,distractor1,distractor2,distractor3,distractor4,CorrAns,isi_duration,isi_dur_in_seconds,participant,session,date,expName,psychopyVersion,OS,frameRate,PROLIFIC_PID,STUDY_ID,SESSION_ID,key_resp.rt,key_resp_4.rt
return,18.6708,space,9.4234,,,0,0,0,148,1,X, , , , ,,2000,2,,001,2021-08-19_16h42.56.440,natb3,2021.2.3,Win32,59.79073244,61150dc88df7514d99d56af5,611e07ecdcc96256ae8d5b80,611e7bf4ccad7a569a0a8782,,
,,,,,,0,1,1,102,1,X, ,6, , ,,1500,1.5,,001,2021-08-19_16h42.56.440,natb3,2021.2.3,Win32,59.79073244,61150dc88df7514d99d56af5,611e07ecdcc96256ae8d5b80,611e7bf4ccad7a569a0a8782,,
,,,,,,0,2,2,302,1,X, , , , ,,2000,2,,001,2021-08-19_16h42.56.440,natb3,2021.2.3,Win32,59.79073244,61150dc88df7514d99d56af5,611e07ecdcc96256ae8d5b80,611e7bf4ccad7a569a0a8782,,
,,,,space,,0,3,3,178,1,Q, , , , ,space,1500,1.5,,001,2021-08-19_16h42.56.440,natb3,2021.2.3,Win32,59.79073244,61150dc88df7514d99d56af5,611e07ecdcc96256ae8d5b80,611e7bf4ccad7a569a0a8782,0.3746,
,,,,space,,0,4,4,52,1,F, , , , ,space,1500,1.5,,001,2021-08-19_16h42.56.440,natb3,2021.2.3,Win32,59.79073244,61150dc88df7514d99d56af5,611e07ecdcc96256ae8d5b80,611e7bf4ccad7a569a0a8782,0.3506,
,,,,space,,0,5,5,135,1,K, , , , ,space,1500,1.5,,001,2021-08-19_16h42.56.440,natb3,2021.2.3,Win32,59.79073244,61150dc88df7514d99d56af5,611e07ecdcc96256ae8d5b80,611e7bf4ccad7a569a0a8782,0.3826,
,,,,space,,0,6,6,280,1,L, , , , ,space,1500,1.5,,001,2021-08-19_16h42.56.440,natb3,2021.2.3,Win32,59.79073244,61150dc88df7514d99d56af5,611e07ecdcc96256ae8d5b80,611e7bf4ccad7a569a0a8782,0.3831,
,,,,space,,0,7,7,147,1,E, , , , ,space,2000,2,,001,2021-08-19_16h42.56.440,natb3,2021.2.3,Win32,59.79073244,61150dc88df7514d99d56af5,611e07ecdcc96256ae8d5b80,611e7bf4ccad7a569a0a8782,0.4185,
,,,,space,,0,8,8,238,1,D, , , , ,space,1500,1.5,,001,2021-08-19_16h42.56.440,natb3,2021.2.3,Win32,59.79073244,61150dc88df7514d99d56af5,611e07ecdcc96256ae8d5b80,611e7bf4ccad7a569a0a8782,0.3169,
,,,,space,,0,9,9,94,1,C, , , , ,space,2000,2,,001,2021-08-19_16h42.56.440,natb3,2021.2.3,Win32,59.79073244,61150dc88df7514d99d56af5,611e07ecdcc96256ae8d5b80,611e7bf4ccad7a569a0a8782,0.3664,
,,,,space,,0,10,10,149,1,R, , , , ,space,2000,2,,001,2021-08-19_16h42.56.440,natb3,2021.2.3,Win32,59.79073244,61150dc88df7514d99d56af5,611e07ecdcc96256ae8d5b80,611e7bf4ccad7a569a0a8782,0.3334,
,,,,space,,0,11,11,265,1,I, , , , ,space,2000,2,,001,2021-08-19_16h42.56.440,natb3,2021.2.3,Win32,59.79073244,61150dc88df7514d99d56af5,611e07ecdcc96256ae8d5b80,611e7bf4ccad7a569a0a8782,0.3172,
,,,,space,,0,12,12,222,1,O, , , , ,space,2000,2,,001,2021-08-19_16h42.56.440,natb3,2021.2.3,Win32,59.79073244,61150dc88df7514d99d56af5,611e07ecdcc96256ae8d5b80,611e7bf4ccad7a569a0a8782,0.2872,
,,,,,,0,13,13,200,1,X,7, ,5,3,,1500,1.5,,001,2021-08-19_16h42.56.440,natb3,2021.2.3,Win32,59.79073244,61150dc88df7514d99d56af5,611e07ecdcc96256ae8d5b80,611e7bf4ccad7a569a0a8782,,
,,,,space,,0,14,14,204,1,Z, , , , ,space,2000,2,,001,2021-08-19_16h42.56.440,natb3,2021.2.3,Win32,59.79073244,61150dc88df7514d99d56af5,611e07ecdcc96256ae8d5b80,611e7bf4ccad7a569a0a8782,0.3036,
,,,,space,,0,15,15,157,1,A, , , , ,space,2500,2.5,,001,2021-08-19_16h42.56.440,natb3,2021.2.3,Win32,59.79073244,61150dc88df7514d99d56af5,611e07ecdcc96256ae8d5b80,611e7bf4ccad7a569a0a8782,0.3093,
,,,,space,,0,16,16,312,1,K, , , , ,space,2000,2,,001,2021-08-19_16h42.56.440,natb3,2021.2.3,Win32,59.79073244,61150dc88df7514d99d56af5,611e07ecdcc96256ae8d5b80,611e7bf4ccad7a569a0a8782,0.4565,
,,,,space,,0,17,17,9,1,I, , , , ,space,1500,1.5,,001,2021-08-19_16h42.56.440,natb3,2021.2.3,Win32,59.79073244,61150dc88df7514d99d56af5,611e07ecdcc96256ae8d5b80,611e7bf4ccad7a569a0a8782,0.4367,
,,,,,,0,18,18,7,1,X, , , , ,,1500,1.5,,001,2021-08-19_16h42.56.440,natb3,2021.2.3,Win32,59.79073244,61150dc88df7514d99d56af5,611e07ecdcc96256ae8d5b80,611e7bf4ccad7a569a0a8782,,
,,,,,,0,19,19,322,1,X, , ,1,6,,2000,2,,001,2021-08-19_16h42.56.440,natb3,2021.2.3,Win32,59.79073244,61150dc88df7514d99d56af5,611e07ecdcc96256ae8d5b80,611e7bf4ccad7a569a0a8782,,
,,,,space,,0,20,20,160,1,D, , , , ,space,1500,1.5,,001,2021-08-19_16h42.56.440,natb3,2021.2.3,Win32,59.79073244,61150dc88df7514d99d56af5,611e07ecdcc96256ae8d5b80,611e7bf4ccad7a569a0a8782,0.3336,
,,,,space,,0,21,21,71,1,R, , , , ,space,2500,2.5,,001,2021-08-19_16h42.56.440,natb3,2021.2.3,Win32,59.79073244,61150dc88df7514d99d56af5,611e07ecdcc96256ae8d5b80,611e7bf4ccad7a569a0a8782,0.4552,
,,,,space,,0,22,22,100,1,M, , , , ,space,2000,2,,001,2021-08-19_16h42.56.440,natb3,2021.2.3,Win32,59.79073244,61150dc88df7514d99d56af5,611e07ecdcc96256ae8d5b80,611e7bf4ccad7a569a0a8782,0.3114,
,,,,space,,0,23,23,330,1,T, , , , ,space,2500,2.5,,001,2021-08-19_16h42.56.440,natb3,2021.2.3,Win32,59.79073244,61150dc88df7514d99d56af5,611e07ecdcc96256ae8d5b80,611e7bf4ccad7a569a0a8782,0.3847,
,,,,space,,0,24,24,202,1,L, , , , ,space,2500,2.5,,001,2021-08-19_16h42.56.440,natb3,2021.2.3,Win32,59.79073244,61150dc88df7514d99d56af5,611e07ecdcc96256ae8d5b80,611e7bf4ccad7a569a0a8782,0.3041,
,,,,space,,0,25,25,292,1,E, , , , ,space,2000,2,,001,2021-08-19_16h42.56.440,natb3,2021.2.3,Win32,59.79073244,61150dc88df7514d99d56af5,611e07ecdcc96256ae8d5b80,611e7bf4ccad7a569a0a8782,0.3362,
,,,,space,,0,26,26,189,1,O, , , , ,space,1500,1.5,,001,2021-08-19_16h42.56.440,natb3,2021.2.3,Win32,59.79073244,61150dc88df7514d99d56af5,611e07ecdcc96256ae8d5b80,611e7bf4ccad7a569a0a8782,0.3512,
,,,,space,,0,27,27,123,1,O, , , , ,space,1500,1.5,,001,2021-08-19_16h42.56.440,natb3,2021.2.3,Win32,59.79073244,61150dc88df7514d99d56af5,611e07ecdcc96256ae8d5b80,611e7bf4ccad7a569a0a8782,0.3562,
,,,,space,,0,28,28,183,1,R, , , , ,space,1500,1.5,,001,2021-08-19_16h42.56.440,natb3,2021.2.3,Win32,59.79073244,61150dc88df7514d99d56af5,611e07ecdcc96256ae8d5b80,611e7bf4ccad7a569a0a8782,0.3506,
,,,,space,,0,29,29,25,1,Z, , , , ,space,2500,2.5,,001,2021-08-19_16h42.56.440,natb3,2021.2.3,Win32,59.79073244,61150dc88df7514d99d56af5,611e07ecdcc96256ae8d5b80,611e7bf4ccad7a569a0a8782,0.3247,
,,,,space,,0,30,30,281,1,Z, , , , ,space,1500,1.5,,001,2021-08-19_16h42.56.440,natb3,2021.2.3,Win32,59.79073244,61150dc88df7514d99d56af5,611e07ecdcc96256ae8d5b80,611e7bf4ccad7a569a0a8782,0.3338,
,,,,space,,0,31,31,217,1,T, , , , ,space,2500,2.5,,001,2021-08-19_16h42.56.440,natb3,2021.2.3,Win32,59.79073244,61150dc88df7514d99d56af5,611e07ecdcc96256ae8d5b80,611e7bf4ccad7a569a0a8782,0.3913,
,,,,space,,0,32,32,110,1,I, , , , ,space,1500,1.5,,001,2021-08-19_16h42.56.440,natb3,2021.2.3,Win32,59.79073244,61150dc88df7514d99d56af5,611e07ecdcc96256ae8d5b80,611e7bf4ccad7a569a0a8782,0.401,
,,,,space,,0,33,33,288,1,M, , , , ,space,1500,1.5,,001,2021-08-19_16h42.56.440,natb3,2021.2.3,Win32,59.79073244,61150dc88df7514d99d56af5,611e07ecdcc96256ae8d5b80,611e7bf4ccad7a569a0a8782,0.3265,
,,,,space,,0,34,34,230,1,U, , , , ,space,1500,1.5,,001,2021-08-19_16h42.56.440,natb3,2021.2.3,Win32,59.79073244,61150dc88df7514d99d56af5,611e07ecdcc96256ae8d5b80,611e7bf4ccad7a569a0a8782,0.3032,
,,,,space,,0,35,35,254,1,M, , , , ,space,1500,1.5,,001,2021-08-19_16h42.56.440,natb3,2021.2.3,Win32,59.79073244,61150dc88df7514d99d56af5,611e07ecdcc96256ae8d5b80,611e7bf4ccad7a569a0a8782,0.2898,
,,,,space,,0,36,36,326,1,W, , , , ,space,2000,2,,001,2021-08-19_16h42.56.440,natb3,2021.2.3,Win32,59.79073244,61150dc88df7514d99d56af5,611e07ecdcc96256ae8d5b80,611e7bf4ccad7a569a0a8782,0.3855,
,,,,space,,0,37,37,70,1,E, , , , ,space,2500,2.5,,001,2021-08-19_16h42.56.440,natb3,2021.2.3,Win32,59.79073244,61150dc88df7514d99d56af5,611e07ecdcc96256ae8d5b80,611e7bf4ccad7a569a0a8782,0.35,
,,,,,,0,38,38,125,1,X, , , , ,,2000,2,,001,2021-08-19_16h42.56.440,natb3,2021.2.3,Win32,59.79073244,61150dc88df7514d99d56af5,611e07ecdcc96256ae8d5b80,611e7bf4ccad7a569a0a8782,,
,,,,space,,0,39,39,140,1,B, , , , ,space,2500,2.5,,001,2021-08-19_16h42.56.440,natb3,2021.2.3,Win32,59.79073244,61150dc88df7514d99d56af5,611e07ecdcc96256ae8d5b80,611e7bf4ccad7a569a0a8782,0.3393,
,,,,space,,0,40,40,41,1,Y, , , , ,space,2500,2.5,,001,2021-08-19_16h42.56.440,natb3,2021.2.3,Win32,59.79073244,61150dc88df7514d99d56af5,611e07ecdcc96256ae8d5b80,611e7bf4ccad7a569a0a8782,0.4546,
,,,,space,,0,41,41,177,1,M, , , , ,space,2500,2.5,,001,2021-08-19_16h42.56.440,natb3,2021.2.3,Win32,59.79073244,61150dc88df7514d99d56af5,611e07ecdcc96256ae8d5b80,611e7bf4ccad7a569a0a8782,0.3264,
,,,,space,,0,42,42,6,1,Y, , , , ,space,2500,2.5,,001,2021-08-19_16h42.56.440,natb3,2021.2.3,Win32,59.79073244,61150dc88df7514d99d56af5,611e07ecdcc96256ae8d5b80,611e7bf4ccad7a569a0a8782,0.3509,
,,,,space,,0,43,43,182,1,X, , , , ,,1500,1.5,,001,2021-08-19_16h42.56.440,natb3,2021.2.3,Win32,59.79073244,61150dc88df7514d99d56af5,611e07ecdcc96256ae8d5b80,611e7bf4ccad7a569a0a8782,0.3617,
,,,,space,,0,44,44,105,1,R, , , , ,space,2500,2.5,,001,2021-08-19_16h42.56.440,natb3,2021.2.3,Win32,59.79073244,61150dc88df7514d99d56af5,611e07ecdcc96256ae8d5b80,611e7bf4ccad7a569a0a8782,0.4224,
,,,,space,,0,45,45,226,1,R, , , , ,space,2000,2,,001,2021-08-19_16h42.56.440,natb3,2021.2.3,Win32,59.79073244,61150dc88df7514d99d56af5,611e07ecdcc96256ae8d5b80,611e7bf4ccad7a569a0a8782,0.4016,
,,,,space,,0,46,46,334,1,O, , , , ,space,1500,1.5,,001,2021-08-19_16h42.56.440,natb3,2021.2.3,Win32,59.79073244,61150dc88df7514d99d56af5,611e07ecdcc96256ae8d5b80,611e7bf4ccad7a569a0a8782,0.4672,
,,,,space,,0,47,47,270,1,S, , , , ,space,1500,1.5,,001,2021-08-19_16h42.56.440,natb3,2021.2.3,Win32,59.79073244,61150dc88df7514d99d56af5,611e07ecdcc96256ae8d5b80,611e7bf4ccad7a569a0a8782,0.4583,
,,,,space,,0,48,48,205,1,C, , , , ,space,2000,2,,001,2021-08-19_16h42.56.440,natb3,2021.2.3,Win32,59.79073244,61150dc88df7514d99d56af5,611e07ecdcc96256ae8d5b80,611e7bf4ccad7a569a0a8782,0.4003,
,,,,space,,0,49,49,269,1,A, , , , ,space,2500,2.5,,001,2021-08-19_16h42.56.440,natb3,2021.2.3,Win32,59.79073244,61150dc88df7514d99d56af5,611e07ecdcc96256ae8d5b80,611e7bf4ccad7a569a0a8782,0.4008,
,,,,space,,0,50,50,11,1,P, , , , ,space,2500,2.5,,001,2021-08-19_16h42.56.440,natb3,2021.2.3,Win32,59.79073244,61150dc88df7514d99d56af5,611e07ecdcc96256ae8d5b80,611e7bf4ccad7a569a0a8782,0.388,
,,,,space,,0,51,51,317,1,C, , , , ,space,2000,2,,001,2021-08-19_16h42.56.440,natb3,2021.2.3,Win32,59.79073244,61150dc88df7514d99d56af5,611e07ecdcc96256ae8d5b80,611e7bf4ccad7a569a0a8782,0.4263,
,,,,,,0,52,52,15,1,X, , , , ,,1500,1.5,,001,2021-08-19_16h42.56.440,natb3,2021.2.3,Win32,59.79073244,61150dc88df7514d99d56af5,611e07ecdcc96256ae8d5b80,611e7bf4ccad7a569a0a8782,,
,,,,space,,0,53,53,185,1,Y, , , , ,space,2500,2.5,,001,2021-08-19_16h42.56.440,natb3,2021.2.3,Win32,59.79073244,61150dc88df7514d99d56af5,611e07ecdcc96256ae8d5b80,611e7bf4ccad7a569a0a8782,0.3682,
,,,,space,,0,54,54,115,1,R, , , , ,space,1500,1.5,,001,2021-08-19_16h42.56.440,natb3,2021.2.3,Win32,59.79073244,61150dc88df7514d99d56af5,611e07ecdcc96256ae8d5b80,611e7bf4ccad7a569a0a8782,0.4002,
,,,,space,,0,55,55,235,1,A, , , , ,space,1500,1.5,,001,2021-08-19_16h42.56.440,natb3,2021.2.3,Win32,59.79073244,61150dc88df7514d99d56af5,611e07ecdcc96256ae8d5b80,611e7bf4ccad7a569a0a8782,0.3554,
,,,,space,,0,56,56,170,1,Z, , , , ,space,2000,2,,001,2021-08-19_16h42.56.440,natb3,2021.2.3,Win32,59.79073244,61150dc88df7514d99d56af5,611e07ecdcc96256ae8d5b80,611e7bf4ccad7a569a0a8782,0.4171,
,,,,space,,0,57,57,250,1,V, , , , ,space,2000,2,,001,2021-08-19_16h42.56.440,natb3,2021.2.3,Win32,59.79073244,61150dc88df7514d99d56af5,611e07ecdcc96256ae8d5b80,611e7bf4ccad7a569a0a8782,0.4222,
,,,,space,,0,58,58,120,1,U, , , , ,space,1500,1.5,,001,2021-08-19_16h42.56.440,natb3,2021.2.3,Win32,59.79073244,61150dc88df7514d99d56af5,611e07ecdcc96256ae8d5b80,611e7bf4ccad7a569a0a8782,0.3757,
,,,,,,0,59,59,318,1,X, , , , ,,1500,1.5,,001,2021-08-19_16h42.56.440,natb3,2021.2.3,Win32,59.79073244,61150dc88df7514d99d56af5,611e07ecdcc96256ae8d5b80,611e7bf4ccad7a569a0a8782,,
,,,,space,,0,60,60,53,1,G, , , , ,space,2500,2.5,,001,2021-08-19_16h42.56.440,natb3,2021.2.3,Win32,59.79073244,61150dc88df7514d99d56af5,611e07ecdcc96256ae8d5b80,611e7bf4ccad7a569a0a8782,0.3004,
,,,,space,,0,61,61,117,1,T, , , , ,space,2500,2.5,,001,2021-08-19_16h42.56.440,natb3,2021.2.3,Win32,59.79073244,61150dc88df7514d99d56af5,611e07ecdcc96256ae8d5b80,611e7bf4ccad7a569a0a8782,0.3592,
,,,,space,,0,62,62,106,1,T, , , , ,space,1500,1.5,,001,2021-08-19_16h42.56.440,natb3,2021.2.3,Win32,59.79073244,61150dc88df7514d99d56af5,611e07ecdcc96256ae8d5b80,611e7bf4ccad7a569a0a8782,0.3504,
,,,,space,,0,63,63,56,1,J, , , , ,space,1500,1.5,,001,2021-08-19_16h42.56.440,natb3,2021.2.3,Win32,59.79073244,61150dc88df7514d99d56af5,611e07ecdcc96256ae8d5b80,611e7bf4ccad7a569a0a8782,0.2904,
,,,,space,,0,64,64,141,1,X,1, ,4,6,,1500,1.5,,001,2021-08-19_16h42.56.440,natb3,2021.2.3,Win32,59.79073244,61150dc88df7514d99d56af5,611e07ecdcc96256ae8d5b80,611e7bf4ccad7a569a0a8782,0.267,
,,,,space,,0,65,65,26,1,C, , , , ,space,2000,2,,001,2021-08-19_16h42.56.440,natb3,2021.2.3,Win32,59.79073244,61150dc88df7514d99d56af5,611e07ecdcc96256ae8d5b80,611e7bf4ccad7a569a0a8782,0.3853,
,,,,space,,0,66,66,298,1,I, , , , ,space,2000,2,,001,2021-08-19_16h42.56.440,natb3,2021.2.3,Win32,59.79073244,61150dc88df7514d99d56af5,611e07ecdcc96256ae8d5b80,611e7bf4ccad7a569a0a8782,0.5217,
,,,,space,,0,67,67,278,1,J, , , , ,space,2000,2,,001,2021-08-19_16h42.56.440,natb3,2021.2.3,Win32,59.79073244,61150dc88df7514d99d56af5,611e07ecdcc96256ae8d5b80,611e7bf4ccad7a569a0a8782,0.353,
,,,,space,,0,68,68,121,1,I, , , , ,space,2000,2,,001,2021-08-19_16h42.56.440,natb3,2021.2.3,Win32,59.79073244,61150dc88df7514d99d56af5,611e07ecdcc96256ae8d5b80,611e7bf4ccad7a569a0a8782,0.4167,
,,,,space,,0,69,69,156,1,P, , , , ,space,1500,1.5,,001,2021-08-19_16h42.56.440,natb3,2021.2.3,Win32,59.79073244,61150dc88df7514d99d56af5,611e07ecdcc96256ae8d5b80,611e7bf4ccad7a569a0a8782,0.5659,
,,,,space,,0,70,70,220,1,U, , , , ,space,2500,2.5,,001,2021-08-19_16h42.56.440,natb3,2021.2.3,Win32,59.79073244,61150dc88df7514d99d56af5,611e07ecdcc96256ae8d5b80,611e7bf4ccad7a569a0a8782,0.4273,
,,,,space,,0,71,71,79,1,P, , , , ,space,2000,2,,001,2021-08-19_16h42.56.440,natb3,2021.2.3,Win32,59.79073244,61150dc88df7514d99d56af5,611e07ecdcc96256ae8d5b80,611e7bf4ccad7a569a0a8782,0.4178,
,,,,space,,0,72,72,309,1,H, , , , ,space,2500,2.5,,001,2021-08-19_16h42.56.440,natb3,2021.2.3,Win32,59.79073244,61150dc88df7514d99d56af5,611e07ecdcc96256ae8d5b80,611e7bf4ccad7a569a0a8782,0.3596,
,,,,space,,0,73,73,180,1,W, , , , ,space,2000,2,,001,2021-08-19_16h42.56.440,natb3,2021.2.3,Win32,59.79073244,61150dc88df7514d99d56af5,611e07ecdcc96256ae8d5b80,611e7bf4ccad7a569a0a8782,0.3836,
,,,,space,,0,74,74,242,1,H, , , , ,space,2500,2.5,,001,2021-08-19_16h42.56.440,natb3,2021.2.3,Win32,59.79073244,61150dc88df7514d99d56af5,611e07ecdcc96256ae8d5b80,611e7bf4ccad7a569a0a8782,0.3702,
,,,,,,0,75,75,166,1,X, , , , ,,2000,2,,001,2021-08-19_16h42.56.440,natb3,2021.2.3,Win32,59.79073244,61150dc88df7514d99d56af5,611e07ecdcc96256ae8d5b80,611e7bf4ccad7a569a0a8782,,
,,,,space,,0,76,76,240,1,F, , , , ,space,2500,2.5,,001,2021-08-19_16h42.56.440,natb3,2021.2.3,Win32,59.79073244,61150dc88df7514d99d56af5,611e07ecdcc96256ae8d5b80,611e7bf4ccad7a569a0a8782,0.3997,
,,,,space,,0,77,77,186,1,U, , , , ,space,2500,2.5,,001,2021-08-19_16h42.56.440,natb3,2021.2.3,Win32,59.79073244,61150dc88df7514d99d56af5,611e07ecdcc96256ae8d5b80,611e7bf4ccad7a569a0a8782,0.3499,
,,,,space,,0,78,78,95,1,V, , , , ,space,1500,1.5,,001,2021-08-19_16h42.56.440,natb3,2021.2.3,Win32,59.79073244,61150dc88df7514d99d56af5,611e07ecdcc96256ae8d5b80,611e7bf4ccad7a569a0a8782,0.4057,
,,,,space,,0,79,79,73,1,Y, , , , ,space,2000,2,,001,2021-08-19_16h42.56.440,natb3,2021.2.3,Win32,59.79073244,61150dc88df7514d99d56af5,611e07ecdcc96256ae8d5b80,611e7bf4ccad7a569a0a8782,0.4215,
,,,,space,,0,80,80,20,1,H, , , , ,space,1500,1.5,,001,2021-08-19_16h42.56.440,natb3,2021.2.3,Win32,59.79073244,61150dc88df7514d99d56af5,611e07ecdcc96256ae8d5b80,611e7bf4ccad7a569a0a8782,0.3842,
,,,,space,,0,81,81,29,1,B, , , , ,space,1500,1.5,,001,2021-08-19_16h42.56.440,natb3,2021.2.3,Win32,59.79073244,61150dc88df7514d99d56af5,611e07ecdcc96256ae8d5b80,611e7bf4ccad7a569a0a8782,0.4838,
,,,,space,,0,82,82,134,1,J, , , , ,space,2000,2,,001,2021-08-19_16h42.56.440,natb3,2021.2.3,Win32,59.79073244,61150dc88df7514d99d56af5,611e07ecdcc96256ae8d5b80,611e7bf4ccad7a569a0a8782,0.3675,
,,,,,,0,83,83,78,1,X, , , , ,,2000,2,,001,2021-08-19_16h42.56.440,natb3,2021.2.3,Win32,59.79073244,61150dc88df7514d99d56af5,611e07ecdcc96256ae8d5b80,611e7bf4ccad7a569a0a8782,,
,,,,space,,0,84,84,101,1,Q, , , , ,space,2500,2.5,,001,2021-08-19_16h42.56.440,natb3,2021.2.3,Win32,59.79073244,61150dc88df7514d99d56af5,611e07ecdcc96256ae8d5b80,611e7bf4ccad7a569a0a8782,0.4339,
,,,,space,,0,85,85,266,1,O, , , , ,space,1500,1.5,,001,2021-08-19_16h42.56.440,natb3,2021.2.3,Win32,59.79073244,61150dc88df7514d99d56af5,611e07ecdcc96256ae8d5b80,611e7bf4ccad7a569a0a8782,0.3835,
,,,,space,,0,86,86,275,1,G, , , , ,space,1500,1.5,,001,2021-08-19_16h42.56.440,natb3,2021.2.3,Win32,59.79073244,61150dc88df7514d99d56af5,611e07ecdcc96256ae8d5b80,611e7bf4ccad7a569a0a8782,0.3338,
,,,,space,,0,87,87,261,1,T, , , , ,space,2000,2,,001,2021-08-19_16h42.56.440,natb3,2021.2.3,Win32,59.79073244,61150dc88df7514d99d56af5,611e07ecdcc96256ae8d5b80,611e7bf4ccad7a569a0a8782,0.343,
,,,,space,,0,88,88,234,1,P, , , , ,space,2000,2,,001,2021-08-19_16h42.56.440,natb3,2021.2.3,Win32,59.79073244,61150dc88df7514d99d56af5,611e07ecdcc96256ae8d5b80,611e7bf4ccad7a569a0a8782,0.3588,
,,,,space,,0,89,89,181,1,E, , , , ,space,1500,1.5,,001,2021-08-19_16h42.56.440,natb3,2021.2.3,Win32,59.79073244,61150dc88df7514d99d56af5,611e07ecdcc96256ae8d5b80,611e7bf4ccad7a569a0a8782,0.5033,
,,,,space,,0,90,90,249,1,C, , , , ,space,2000,2,,001,2021-08-19_16h42.56.440,natb3,2021.2.3,Win32,59.79073244,61150dc88df7514d99d56af5,611e07ecdcc96256ae8d5b80,611e7bf4ccad7a569a0a8782,0.49,
,,,,space,,0,91,91,152,1,U, , , , ,space,2000,2,,001,2021-08-19_16h42.56.440,natb3,2021.2.3,Win32,59.79073244,61150dc88df7514d99d56af5,611e07ecdcc96256ae8d5b80,611e7bf4ccad7a569a0a8782,0.4207,
,,,,space,,0,92,92,296,1,Y, , , , ,space,2500,2.5,,001,2021-08-19_16h42.56.440,natb3,2021.2.3,Win32,59.79073244,61150dc88df7514d99d56af5,611e07ecdcc96256ae8d5b80,611e7bf4ccad7a569a0a8782,0.4719,
,,,,space,,0,93,93,75,1,U, , , , ,space,1500,1.5,,001,2021-08-19_16h42.56.440,natb3,2021.2.3,Win32,59.79073244,61150dc88df7514d99d56af5,611e07ecdcc96256ae8d5b80,611e7bf4ccad7a569a0a8782,0.4498,
,,,,space,,0,94,94,128,1,D, , , , ,space,2500,2.5,,001,2021-08-19_16h42.56.440,natb3,2021.2.3,Win32,59.79073244,61150dc88df7514d99d56af5,611e07ecdcc96256ae8d5b80,611e7bf4ccad7a569a0a8782,0.3383,
,,,,space,,0,95,95,319,1,V, , , , ,space,2000,2,,001,2021-08-19_16h42.56.440,natb3,2021.2.3,Win32,59.79073244,61150dc88df7514d99d56af5,611e07ecdcc96256ae8d5b80,611e7bf4ccad7a569a0a8782,0.509,
,,,,,,0,96,96,133,1,X, ,4, ,6,,2500,2.5,,001,2021-08-19_16h42.56.440,natb3,2021.2.3,Win32,59.79073244,61150dc88df7514d99d56af5,611e07ecdcc96256ae8d5b80,611e7bf4ccad7a569a0a8782,,
,,,,space,,0,97,97,91,1,L, , , , ,space,2000,2,,001,2021-08-19_16h42.56.440,natb3,2021.2.3,Win32,59.79073244,61150dc88df7514d99d56af5,611e07ecdcc96256ae8d5b80,611e7bf4ccad7a569a0a8782,0.3855,
,,,,space,,0,98,98,279,1,K, , , , ,space,2500,2.5,,001,2021-08-19_16h42.56.440,natb3,2021.2.3,Win32,59.79073244,61150dc88df7514d99d56af5,611e07ecdcc96256ae8d5b80,611e7bf4ccad7a569a0a8782,0.4412,
,,,,space,,0,99,99,38,1,R, , , , ,space,2500,2.5,,001,2021-08-19_16h42.56.440,natb3,2021.2.3,Win32,59.79073244,61150dc88df7514d99d56af5,611e07ecdcc96256ae8d5b80,611e7bf4ccad7a569a0a8782,0.36,
,,,,space,,0,100,100,232,1,O, , , , ,space,2500,2.5,,001,2021-08-19_16h42.56.440,natb3,2021.2.3,Win32,59.79073244,61150dc88df7514d99d56af5,611e07ecdcc96256ae8d5b80,611e7bf4ccad7a569a0a8782,0.3398,
,,,,space,,0,101,101,131,1,G, , , , ,space,1500,1.5,,001,2021-08-19_16h42.56.440,natb3,2021.2.3,Win32,59.79073244,61150dc88df7514d99d56af5,611e07ecdcc96256ae8d5b80,611e7bf4ccad7a569a0a8782,0.5223,
,,,,space,,0,102,102,4,1,X, , , , ,,2000,2,,001,2021-08-19_16h42.56.440,natb3,2021.2.3,Win32,59.79073244,61150dc88df7514d99d56af5,611e07ecdcc96256ae8d5b80,611e7bf4ccad7a569a0a8782,0.4336,
,,,,,,0,103,103,315,1,X, , , , ,,2500,2.5,,001,2021-08-19_16h42.56.440,natb3,2021.2.3,Win32,59.79073244,61150dc88df7514d99d56af5,611e07ecdcc96256ae8d5b80,611e7bf4ccad7a569a0a8782,,
,,,,space,,0,104,104,143,1,M, , , , ,space,2500,2.5,,001,2021-08-19_16h42.56.440,natb3,2021.2.3,Win32,59.79073244,61150dc88df7514d99d56af5,611e07ecdcc96256ae8d5b80,611e7bf4ccad7a569a0a8782,0.8335,
,,,,space,,0,105,105,304,1,S, , , , ,space,2000,2,,001,2021-08-19_16h42.56.440,natb3,2021.2.3,Win32,59.79073244,61150dc88df7514d99d56af5,611e07ecdcc96256ae8d5b80,611e7bf4ccad7a569a0a8782,0.6511,
,,,,,,0,106,106,158,1,X, , , , ,,1500,1.5,,001,2021-08-19_16h42.56.440,natb3,2021.2.3,Win32,59.79073244,61150dc88df7514d99d56af5,611e07ecdcc96256ae8d5b80,611e7bf4ccad7a569a0a8782,,
,,,,,,0,107,107,211,1,X, , , , ,,2500,2.5,,001,2021-08-19_16h42.56.440,natb3,2021.2.3,Win32,59.79073244,61150dc88df7514d99d56af5,611e07ecdcc96256ae8d5b80,611e7bf4ccad7a569a0a8782,,
,,,,space,,0,108,108,225,1,E, , , , ,space,2000,2,,001,2021-08-19_16h42.56.440,natb3,2021.2.3,Win32,59.79073244,61150dc88df7514d99d56af5,611e07ecdcc96256ae8d5b80,611e7bf4ccad7a569a0a8782,0.6844,
,,,,,,0,109,109,248,1,X, ,1,5, ,,1500,1.5,,001,2021-08-19_16h42.56.440,natb3,2021.2.3,Win32,59.79073244,61150dc88df7514d99d56af5,611e07ecdcc96256ae8d5b80,611e7bf4ccad7a569a0a8782,,
,,,,space,,0,110,110,48,1,A, , , , ,space,2500,2.5,,001,2021-08-19_16h42.56.440,natb3,2021.2.3,Win32,59.79073244,61150dc88df7514d99d56af5,611e07ecdcc96256ae8d5b80,611e7bf4ccad7a569a0a8782,0.3347,
,,,,space,,0,111,111,323,1,M, , , , ,space,2500,2.5,,001,2021-08-19_16h42.56.440,natb3,2021.2.3,Win32,59.79073244,61150dc88df7514d99d56af5,611e07ecdcc96256ae8d5b80,611e7bf4ccad7a569a0a8782,0.3519,
,,,,space,,0,112,112,13,1,A, , , , ,space,2000,2,,001,2021-08-19_16h42.56.440,natb3,2021.2.3,Win32,59.79073244,61150dc88df7514d99d56af5,611e07ecdcc96256ae8d5b80,611e7bf4ccad7a569a0a8782,0.3607,
,,,,space,,0,113,113,65,1,M, , , , ,space,1500,1.5,,001,2021-08-19_16h42.56.440,natb3,2021.2.3,Win32,59.79073244,61150dc88df7514d99d56af5,611e07ecdcc96256ae8d5b80,611e7bf4ccad7a569a0a8782,0.5174,
,,,,space,,0,114,114,76,1,I, , , , ,space,2000,2,,001,2021-08-19_16h42.56.440,natb3,2021.2.3,Win32,59.79073244,61150dc88df7514d99d56af5,611e07ecdcc96256ae8d5b80,611e7bf4ccad7a569a0a8782,0.4083,
,,,,,,0,115,115,233,1,X, ,2, ,5,,1500,1.5,,001,2021-08-19_16h42.56.440,natb3,2021.2.3,Win32,59.79073244,61150dc88df7514d99d56af5,611e07ecdcc96256ae8d5b80,611e7bf4ccad7a569a0a8782,,
,,,,,,0,116,116,124,1,P, , , , ,space,2000,2,,001,2021-08-19_16h42.56.440,natb3,2021.2.3,Win32,59.79073244,61150dc88df7514d99d56af5,611e07ecdcc96256ae8d5b80,611e7bf4ccad7a569a0a8782,,
,,,,,,0,117,117,299,1,X, , , , ,,2500,2.5,,001,2021-08-19_16h42.56.440,natb3,2021.2.3,Win32,59.79073244,61150dc88df7514d99d56af5,611e07ecdcc96256ae8d5b80,611e7bf4ccad7a569a0a8782,,
,,,,space,,0,118,118,142,1,N, , , , ,space,2500,2.5,,001,2021-08-19_16h42.56.440,natb3,2021.2.3,Win32,59.79073244,61150dc88df7514d99d56af5,611e07ecdcc96256ae8d5b80,611e7bf4ccad7a569a0a8782,0.3838,
,,,,space,,0,119,119,272,1,D, , , , ,space,2000,2,,001,2021-08-19_16h42.56.440,natb3,2021.2.3,Win32,59.79073244,61150dc88df7514d99d56af5,611e07ecdcc96256ae8d5b80,611e7bf4ccad7a569a0a8782,0.4006,
,,,,space,,0,120,120,291,1,X, , , , ,,2000,2,,001,2021-08-19_16h42.56.440,natb3,2021.2.3,Win32,59.79073244,61150dc88df7514d99d56af5,611e07ecdcc96256ae8d5b80,611e7bf4ccad7a569a0a8782,0.4101,
,,,,,,0,121,121,224,1,W, , , , ,space,1500,1.5,,001,2021-08-19_16h42.56.440,natb3,2021.2.3,Win32,59.79073244,61150dc88df7514d99d56af5,611e07ecdcc96256ae8d5b80,611e7bf4ccad7a569a0a8782,,
,,,,space,,0,122,122,55,1,H, , , , ,space,2500,2.5,,001,2021-08-19_16h42.56.440,natb3,2021.2.3,Win32,59.79073244,61150dc88df7514d99d56af5,611e07ecdcc96256ae8d5b80,611e7bf4ccad7a569a0a8782,0.5578,
,,,,space,,0,123,123,216,1,R, , , , ,space,1500,1.5,,001,2021-08-19_16h42.56.440,natb3,2021.2.3,Win32,59.79073244,61150dc88df7514d99d56af5,611e07ecdcc96256ae8d5b80,611e7bf4ccad7a569a0a8782,0.4767,
,,,,space,,0,124,124,103,1,W, , , , ,space,2000,2,,001,2021-08-19_16h42.56.440,natb3,2021.2.3,Win32,59.79073244,61150dc88df7514d99d56af5,611e07ecdcc96256ae8d5b80,611e7bf4ccad7a569a0a8782,0.4558,
,,,,,,0,125,125,213,1,X, , , , ,,2500,2.5,,001,2021-08-19_16h42.56.440,natb3,2021.2.3,Win32,59.79073244,61150dc88df7514d99d56af5,611e07ecdcc96256ae8d5b80,611e7bf4ccad7a569a0a8782,,
,,,,space,,0,126,126,111,1,O, , , , ,space,2000,2,,001,2021-08-19_16h42.56.440,natb3,2021.2.3,Win32,59.79073244,61150dc88df7514d99d56af5,611e07ecdcc96256ae8d5b80,611e7bf4ccad7a569a0a8782,0.4103,
,,,,space,,0,127,127,321,1,N, , , , ,space,2000,2,,001,2021-08-19_16h42.56.440,natb3,2021.2.3,Win32,59.79073244,61150dc88df7514d99d56af5,611e07ecdcc96256ae8d5b80,611e7bf4ccad7a569a0a8782,0.4502,
,,,,,,0,128,128,116,1,X, , , , ,,2000,2,,001,2021-08-19_16h42.56.440,natb3,2021.2.3,Win32,59.79073244,61150dc88df7514d99d56af5,611e07ecdcc96256ae8d5b80,611e7bf4ccad7a569a0a8782,,
,,,,,,0,129,129,122,1,X,1, , ,8,,1500,1.5,,001,2021-08-19_16h42.56.440,natb3,2021.2.3,Win32,59.79073244,61150dc88df7514d99d56af5,611e07ecdcc96256ae8d5b80,611e7bf4ccad7a569a0a8782,,
,,,,,,0,130,130,311,1,X,1,2,7,3,,2500,2.5,,001,2021-08-19_16h42.56.440,natb3,2021.2.3,Win32,59.79073244,61150dc88df7514d99d56af5,611e07ecdcc96256ae8d5b80,611e7bf4ccad7a569a0a8782,,
,,,,space,,0,131,131,221,1,I, , , , ,space,2500,2.5,,001,2021-08-19_16h42.56.440,natb3,2021.2.3,Win32,59.79073244,61150dc88df7514d99d56af5,611e07ecdcc96256ae8d5b80,611e7bf4ccad7a569a0a8782,0.4267,
,,,,space,,0,132,132,146,1,W, , , , ,space,1500,1.5,,001,2021-08-19_16h42.56.440,natb3,2021.2.3,Win32,59.79073244,61150dc88df7514d99d56af5,611e07ecdcc96256ae8d5b80,611e7bf4ccad7a569a0a8782,0.5347,
,,,,,,0,133,133,27,1,X,5, ,1,3,,1500,1.5,,001,2021-08-19_16h42.56.440,natb3,2021.2.3,Win32,59.79073244,61150dc88df7514d99d56af5,611e07ecdcc96256ae8d5b80,611e7bf4ccad7a569a0a8782,,
,,,,space,,0,134,134,45,1,O, , , , ,space,2000,2,,001,2021-08-19_16h42.56.440,natb3,2021.2.3,Win32,59.79073244,61150dc88df7514d99d56af5,611e07ecdcc96256ae8d5b80,611e7bf4ccad7a569a0a8782,0.4053,
,,,,,,0,135,135,98,1,X, , , , ,,2500,2.5,,001,2021-08-19_16h42.56.440,natb3,2021.2.3,Win32,59.79073244,61150dc88df7514d99d56af5,611e07ecdcc96256ae8d5b80,611e7bf4ccad7a569a0a8782,,
,,,,space,,0,136,136,113,1,W, , , , ,space,2500,2.5,,001,2021-08-19_16h42.56.440,natb3,2021.2.3,Win32,59.79073244,61150dc88df7514d99d56af5,611e07ecdcc96256ae8d5b80,611e7bf4ccad7a569a0a8782,0.4382,
,,,,space,,0,137,137,198,1,H, , , , ,space,2500,2.5,,001,2021-08-19_16h42.56.440,natb3,2021.2.3,Win32,59.79073244,61150dc88df7514d99d56af5,611e07ecdcc96256ae8d5b80,611e7bf4ccad7a569a0a8782,0.3593,
,,,,,,0,138,138,191,1,X,1, ,3,4,,2500,2.5,,001,2021-08-19_16h42.56.440,natb3,2021.2.3,Win32,59.79073244,61150dc88df7514d99d56af5,611e07ecdcc96256ae8d5b80,611e7bf4ccad7a569a0a8782,,
,,,,space,,0,139,139,85,1,F, , , , ,space,2500,2.5,,001,2021-08-19_16h42.56.440,natb3,2021.2.3,Win32,59.79073244,61150dc88df7514d99d56af5,611e07ecdcc96256ae8d5b80,611e7bf4ccad7a569a0a8782,0.4427,
,,,,,,0,140,140,39,1,X,6,2, , ,,1500,1.5,,001,2021-08-19_16h42.56.440,natb3,2021.2.3,Win32,59.79073244,61150dc88df7514d99d56af5,611e07ecdcc96256ae8d5b80,611e7bf4ccad7a569a0a8782,,
,,,,space,,0,141,141,31,1,X, , , , ,,1500,1.5,,001,2021-08-19_16h42.56.440,natb3,2021.2.3,Win32,59.79073244,61150dc88df7514d99d56af5,611e07ecdcc96256ae8d5b80,611e7bf4ccad7a569a0a8782,0.5001,
,,,,space,,0,142,142,310,1,J, , , , ,space,2500,2.5,,001,2021-08-19_16h42.56.440,natb3,2021.2.3,Win32,59.79073244,61150dc88df7514d99d56af5,611e07ecdcc96256ae8d5b80,611e7bf4ccad7a569a0a8782,0.508,
,,,,space,,0,143,143,307,1,F, , , , ,space,2500,2.5,,001,2021-08-19_16h42.56.440,natb3,2021.2.3,Win32,59.79073244,61150dc88df7514d99d56af5,611e07ecdcc96256ae8d5b80,611e7bf4ccad7a569a0a8782,0.5905,
,,,,space,,0,144,144,132,1,H, , , , ,space,2500,2.5,,001,2021-08-19_16h42.56.440,natb3,2021.2.3,Win32,59.79073244,61150dc88df7514d99d56af5,611e07ecdcc96256ae8d5b80,611e7bf4ccad7a569a0a8782,0.4337,
,,,,space,,0,145,145,173,1,V, , , , ,space,1500,1.5,,001,2021-08-19_16h42.56.440,natb3,2021.2.3,Win32,59.79073244,61150dc88df7514d99d56af5,611e07ecdcc96256ae8d5b80,611e7bf4ccad7a569a0a8782,0.5738,
,,,,space,,0,146,146,228,1,Y, , , , ,space,2000,2,,001,2021-08-19_16h42.56.440,natb3,2021.2.3,Win32,59.79073244,61150dc88df7514d99d56af5,611e07ecdcc96256ae8d5b80,611e7bf4ccad7a569a0a8782,0.6517,
,,,,,,0,147,147,229,1,X,8, ,2,6,,2500,2.5,,001,2021-08-19_16h42.56.440,natb3,2021.2.3,Win32,59.79073244,61150dc88df7514d99d56af5,611e07ecdcc96256ae8d5b80,611e7bf4ccad7a569a0a8782,,
,,,,space,,0,148,148,40,1,T, , , , ,space,1500,1.5,,001,2021-08-19_16h42.56.440,natb3,2021.2.3,Win32,59.79073244,61150dc88df7514d99d56af5,611e07ecdcc96256ae8d5b80,611e7bf4ccad7a569a0a8782,0.7165,
,,,,,,0,149,149,236,1,X,3, ,4,7,,2500,2.5,,001,2021-08-19_16h42.56.440,natb3,2021.2.3,Win32,59.79073244,61150dc88df7514d99d56af5,611e07ecdcc96256ae8d5b80,611e7bf4ccad7a569a0a8782,,
,,,,,,0,150,150,273,1,X, , , , ,,2000,2,,001,2021-08-19_16h42.56.440,natb3,2021.2.3,Win32,59.79073244,61150dc88df7514d99d56af5,611e07ecdcc96256ae8d5b80,611e7bf4ccad7a569a0a8782,,
,,,,space,,0,151,151,289,1,Q, , , , ,space,2000,2,,001,2021-08-19_16h42.56.440,natb3,2021.2.3,Win32,59.79073244,61150dc88df7514d99d56af5,611e07ecdcc96256ae8d5b80,611e7bf4ccad7a569a0a8782,0.3731,
,,,,space,,0,152,152,301,1,P, , , , ,space,1500,1.5,,001,2021-08-19_16h42.56.440,natb3,2021.2.3,Win32,59.79073244,61150dc88df7514d99d56af5,611e07ecdcc96256ae8d5b80,611e7bf4ccad7a569a0a8782,0.4514,
,,,,,,0,153,153,259,1,X,8, , ,3,,2500,2.5,,001,2021-08-19_16h42.56.440,natb3,2021.2.3,Win32,59.79073244,61150dc88df7514d99d56af5,611e07ecdcc96256ae8d5b80,611e7bf4ccad7a569a0a8782,,
,,,,,,0,154,154,168,1,X, , , , ,,2500,2.5,,001,2021-08-19_16h42.56.440,natb3,2021.2.3,Win32,59.79073244,61150dc88df7514d99d56af5,611e07ecdcc96256ae8d5b80,611e7bf4ccad7a569a0a8782,,
,,,,,,0,155,155,313,1,X, , , , ,,2500,2.5,,001,2021-08-19_16h42.56.440,natb3,2021.2.3,Win32,59.79073244,61150dc88df7514d99d56af5,611e07ecdcc96256ae8d5b80,611e7bf4ccad7a569a0a8782,,
,,,,space,,0,156,156,237,1,S, , , , ,space,1500,1.5,,001,2021-08-19_16h42.56.440,natb3,2021.2.3,Win32,59.79073244,61150dc88df7514d99d56af5,611e07ecdcc96256ae8d5b80,611e7bf4ccad7a569a0a8782,0.4336,
,,,,,,0,157,157,287,1,X, ,2, ,9,,2000,2,,001,2021-08-19_16h42.56.440,natb3,2021.2.3,Win32,59.79073244,61150dc88df7514d99d56af5,611e07ecdcc96256ae8d5b80,611e7bf4ccad7a569a0a8782,,
,,,,space,,0,158,158,64,1,N, , , , ,space,2000,2,,001,2021-08-19_16h42.56.440,natb3,2021.2.3,Win32,59.79073244,61150dc88df7514d99d56af5,611e07ecdcc96256ae8d5b80,611e7bf4ccad7a569a0a8782,0.4828,
,,,,space,,0,159,159,22,1,K, , , , ,space,2000,2,,001,2021-08-19_16h42.56.440,natb3,2021.2.3,Win32,59.79073244,61150dc88df7514d99d56af5,611e07ecdcc96256ae8d5b80,611e7bf4ccad7a569a0a8782,0.4766,
,,,,space,,0,160,160,80,1,A, , , , ,space,2000,2,,001,2021-08-19_16h42.56.440,natb3,2021.2.3,Win32,59.79073244,61150dc88df7514d99d56af5,611e07ecdcc96256ae8d5b80,611e7bf4ccad7a569a0a8782,0.4222,
,,,,space,,0,161,161,332,1,U, , , , ,space,2000,2,,001,2021-08-19_16h42.56.440,natb3,2021.2.3,Win32,59.79073244,61150dc88df7514d99d56af5,611e07ecdcc96256ae8d5b80,611e7bf4ccad7a569a0a8782,0.4998,
,,,,space,,0,162,162,199,1,J, , , , ,space,2500,2.5,,001,2021-08-19_16h42.56.440,natb3,2021.2.3,Win32,59.79073244,61150dc88df7514d99d56af5,611e07ecdcc96256ae8d5b80,611e7bf4ccad7a569a0a8782,0.47,
,,,,space,,0,163,163,231,1,I, , , , ,space,2500,2.5,,001,2021-08-19_16h42.56.440,natb3,2021.2.3,Win32,59.79073244,61150dc88df7514d99d56af5,611e07ecdcc96256ae8d5b80,611e7bf4ccad7a569a0a8782,0.4348,
,,,,,,0,164,164,51,1,X,7,5,8, ,,1500,1.5,,001,2021-08-19_16h42.56.440,natb3,2021.2.3,Win32,59.79073244,61150dc88df7514d99d56af5,611e07ecdcc96256ae8d5b80,611e7bf4ccad7a569a0a8782,,
,,,,space,,0,165,165,193,1,S, , , , ,space,2500,2.5,,001,2021-08-19_16h42.56.440,natb3,2021.2.3,Win32,59.79073244,61150dc88df7514d99d56af5,611e07ecdcc96256ae8d5b80,611e7bf4ccad7a569a0a8782,0.4342,
,,,,,,0,166,166,84,1,X, , , , ,,2000,2,,001,2021-08-19_16h42.56.440,natb3,2021.2.3,Win32,59.79073244,61150dc88df7514d99d56af5,611e07ecdcc96256ae8d5b80,611e7bf4ccad7a569a0a8782,,
,,,,space,space,0,167,167,290,1,W, , , , ,space,1500,1.5,,001,2021-08-19_16h42.56.440,natb3,2021.2.3,Win32,59.79073244,61150dc88df7514d99d56af5,611e07ecdcc96256ae8d5b80,611e7bf4ccad7a569a0a8782,0.5203,3.3461
,,,,,,0,168,168,89,1,X,3, , , ,,2000,2,,001,2021-08-19_16h42.56.440,natb3,2021.2.3,Win32,59.79073244,61150dc88df7514d99d56af5,611e07ecdcc96256ae8d5b80,611e7bf4ccad7a569a0a8782,,
,,,,space,,0,169,169,127,1,S, , , , ,space,2500,2.5,,001,2021-08-19_16h42.56.440,natb3,2021.2.3,Win32,59.79073244,61150dc88df7514d99d56af5,611e07ecdcc96256ae8d5b80,611e7bf4ccad7a569a0a8782,0.3842,
,,,,space,,0,170,170,197,1,G, , , , ,space,2500,2.5,,001,2021-08-19_16h42.56.440,natb3,2021.2.3,Win32,59.79073244,61150dc88df7514d99d56af5,611e07ecdcc96256ae8d5b80,611e7bf4ccad7a569a0a8782,0.4743,
,,,,space,,0,171,171,8,1,U, , , , ,space,1500,1.5,,001,2021-08-19_16h42.56.440,natb3,2021.2.3,Win32,59.79073244,61150dc88df7514d99d56af5,611e07ecdcc96256ae8d5b80,611e7bf4ccad7a569a0a8782,0.4514,
,,,,space,,0,172,172,258,1,E, , , , ,space,1500,1.5,,001,2021-08-19_16h42.56.440,natb3,2021.2.3,Win32,59.79073244,61150dc88df7514d99d56af5,611e07ecdcc96256ae8d5b80,611e7bf4ccad7a569a0a8782,0.4077,
,,,,,,0,173,173,295,1,X,8,7,5, ,,2500,2.5,,001,2021-08-19_16h42.56.440,natb3,2021.2.3,Win32,59.79073244,61150dc88df7514d99d56af5,611e07ecdcc96256ae8d5b80,611e7bf4ccad7a569a0a8782,,
,,,,,,0,174,174,187,1,X, ,3,7,4,,1500,1.5,,001,2021-08-19_16h42.56.440,natb3,2021.2.3,Win32,59.79073244,61150dc88df7514d99d56af5,611e07ecdcc96256ae8d5b80,611e7bf4ccad7a569a0a8782,,
,,,,,,0,175,175,118,1,X, , , , ,,2000,2,,001,2021-08-19_16h42.56.440,natb3,2021.2.3,Win32,59.79073244,61150dc88df7514d99d56af5,611e07ecdcc96256ae8d5b80,611e7bf4ccad7a569a0a8782,,
,,,,space,,0,176,176,196,1,F, , , , ,space,1500,1.5,,001,2021-08-19_16h42.56.440,natb3,2021.2.3,Win32,59.79073244,61150dc88df7514d99d56af5,611e07ecdcc96256ae8d5b80,611e7bf4ccad7a569a0a8782,0.4033,
,,,,space,,0,177,177,284,1,V, , , , ,space,2500,2.5,,001,2021-08-19_16h42.56.440,natb3,2021.2.3,Win32,59.79073244,61150dc88df7514d99d56af5,611e07ecdcc96256ae8d5b80,611e7bf4ccad7a569a0a8782,0.4479,
,,,,space,,0,178,178,174,1,B, , , , ,space,2500,2.5,,001,2021-08-19_16h42.56.440,natb3,2021.2.3,Win32,59.79073244,61150dc88df7514d99d56af5,611e07ecdcc96256ae8d5b80,611e7bf4ccad7a569a0a8782,0.4446,
,,,,space,,0,179,179,314,1,L, , , , ,space,1500,1.5,,001,2021-08-19_16h42.56.440,natb3,2021.2.3,Win32,59.79073244,61150dc88df7514d99d56af5,611e07ecdcc96256ae8d5b80,611e7bf4ccad7a569a0a8782,0.5175,
,,,,,,0,180,180,271,1,X, , , , ,,2500,2.5,,001,2021-08-19_16h42.56.440,natb3,2021.2.3,Win32,59.79073244,61150dc88df7514d99d56af5,611e07ecdcc96256ae8d5b80,611e7bf4ccad7a569a0a8782,,
,,,,,,0,181,181,282,1,X, , , , ,,2500,2.5,,001,2021-08-19_16h42.56.440,natb3,2021.2.3,Win32,59.79073244,61150dc88df7514d99d56af5,611e07ecdcc96256ae8d5b80,611e7bf4ccad7a569a0a8782,,
,,,,space,,0,182,182,90,1,K, , , , ,space,2000,2,,001,2021-08-19_16h42.56.440,natb3,2021.2.3,Win32,59.79073244,61150dc88df7514d99d56af5,611e07ecdcc96256ae8d5b80,611e7bf4ccad7a569a0a8782,0.7737,
,,,,space,,0,183,183,67,1,Q, , , , ,space,2000,2,,001,2021-08-19_16h42.56.440,natb3,2021.2.3,Win32,59.79073244,61150dc88df7514d99d56af5,611e07ecdcc96256ae8d5b80,611e7bf4ccad7a569a0a8782,0.4007,
,,,,,,0,184,184,277,1,X,8,5, ,2,,2000,2,,001,2021-08-19_16h42.56.440,natb3,2021.2.3,Win32,59.79073244,61150dc88df7514d99d56af5,611e07ecdcc96256ae8d5b80,611e7bf4ccad7a569a0a8782,,
,,,,,,0,185,185,305,1,X, , , , ,,1500,1.5,,001,2021-08-19_16h42.56.440,natb3,2021.2.3,Win32,59.79073244,61150dc88df7514d99d56af5,611e07ecdcc96256ae8d5b80,611e7bf4ccad7a569a0a8782,,
,,,,,,0,186,186,69,1,X, , , , ,,1500,1.5,,001,2021-08-19_16h42.56.440,natb3,2021.2.3,Win32,59.79073244,61150dc88df7514d99d56af5,611e07ecdcc96256ae8d5b80,611e7bf4ccad7a569a0a8782,,
,,,,space,,0,187,187,163,1,G, , , , ,space,2500,2.5,,001,2021-08-19_16h42.56.440,natb3,2021.2.3,Win32,59.79073244,61150dc88df7514d99d56af5,611e07ecdcc96256ae8d5b80,611e7bf4ccad7a569a0a8782,0.4407,
,,,,space,,0,188,188,77,1,O, , , , ,space,2000,2,,001,2021-08-19_16h42.56.440,natb3,2021.2.3,Win32,59.79073244,61150dc88df7514d99d56af5,611e07ecdcc96256ae8d5b80,611e7bf4ccad7a569a0a8782,0.4979,
,,,,space,,0,189,189,247,1,Z, , , , ,space,1500,1.5,,001,2021-08-19_16h42.56.440,natb3,2021.2.3,Win32,59.79073244,61150dc88df7514d99d56af5,611e07ecdcc96256ae8d5b80,611e7bf4ccad7a569a0a8782,0.5465,
,,,,,,0,190,190,138,1,X,8,5, ,3,,2000,2,,001,2021-08-19_16h42.56.440,natb3,2021.2.3,Win32,59.79073244,61150dc88df7514d99d56af5,611e07ecdcc96256ae8d5b80,611e7bf4ccad7a569a0a8782,,
,,,,,,0,191,191,207,1,X,9, ,2, ,,2500,2.5,,001,2021-08-19_16h42.56.440,natb3,2021.2.3,Win32,59.79073244,61150dc88df7514d99d56af5,611e07ecdcc96256ae8d5b80,611e7bf4ccad7a569a0a8782,,
,,,,space,,0,192,192,130,1,F, , , , ,space,2000,2,,001,2021-08-19_16h42.56.440,natb3,2021.2.3,Win32,59.79073244,61150dc88df7514d99d56af5,611e07ecdcc96256ae8d5b80,611e7bf4ccad7a569a0a8782,0.5845,
,,,,space,,0,193,193,316,1,Z, , , , ,space,1500,1.5,,001,2021-08-19_16h42.56.440,natb3,2021.2.3,Win32,59.79073244,61150dc88df7514d99d56af5,611e07ecdcc96256ae8d5b80,611e7bf4ccad7a569a0a8782,0.614,
,,,,space,,0,194,194,86,1,G, , , , ,space,2000,2,,001,2021-08-19_16h42.56.440,natb3,2021.2.3,Win32,59.79073244,61150dc88df7514d99d56af5,611e07ecdcc96256ae8d5b80,611e7bf4ccad7a569a0a8782,0.7128,
,,,,space,,0,195,195,208,1,B, , , , ,space,1500,1.5,,001,2021-08-19_16h42.56.440,natb3,2021.2.3,Win32,59.79073244,61150dc88df7514d99d56af5,611e07ecdcc96256ae8d5b80,611e7bf4ccad7a569a0a8782,0.4798,
,,,,,,0,196,196,96,1,X, , , , ,,1500,1.5,,001,2021-08-19_16h42.56.440,natb3,2021.2.3,Win32,59.79073244,61150dc88df7514d99d56af5,611e07ecdcc96256ae8d5b80,611e7bf4ccad7a569a0a8782,,
,,,,,,0,197,197,329,1,X,3,4, ,2,,2500,2.5,,001,2021-08-19_16h42.56.440,natb3,2021.2.3,Win32,59.79073244,61150dc88df7514d99d56af5,611e07ecdcc96256ae8d5b80,611e7bf4ccad7a569a0a8782,,
,,,,space,,0,198,198,47,1,P, , , , ,space,2000,2,,001,2021-08-19_16h42.56.440,natb3,2021.2.3,Win32,59.79073244,61150dc88df7514d99d56af5,611e07ecdcc96256ae8d5b80,611e7bf4ccad7a569a0a8782,0.5278,
,,,,space,,0,199,199,219,1,Y, , , , ,space,2000,2,,001,2021-08-19_16h42.56.440,natb3,2021.2.3,Win32,59.79073244,61150dc88df7514d99d56af5,611e07ecdcc96256ae8d5b80,611e7bf4ccad7a569a0a8782,0.6324,
,,,,space,,0,200,200,300,1,O, , , , ,space,2500,2.5,,001,2021-08-19_16h42.56.440,natb3,2021.2.3,Win32,59.79073244,61150dc88df7514d99d56af5,611e07ecdcc96256ae8d5b80,611e7bf4ccad7a569a0a8782,0.4358,
,,,,space,,0,201,201,201,1,K, , , , ,space,1500,1.5,,001,2021-08-19_16h42.56.440,natb3,2021.2.3,Win32,59.79073244,61150dc88df7514d99d56af5,611e07ecdcc96256ae8d5b80,611e7bf4ccad7a569a0a8782,0.6194,
,,,,space,,0,202,202,32,1,M, , , , ,space,1500,1.5,,001,2021-08-19_16h42.56.440,natb3,2021.2.3,Win32,59.79073244,61150dc88df7514d99d56af5,611e07ecdcc96256ae8d5b80,611e7bf4ccad7a569a0a8782,0.5056,
,,,,,,0,203,203,252,1,X,3, ,6,9,,2000,2,,001,2021-08-19_16h42.56.440,natb3,2021.2.3,Win32,59.79073244,61150dc88df7514d99d56af5,611e07ecdcc96256ae8d5b80,611e7bf4ccad7a569a0a8782,,
,,,,space,,0,204,204,276,1,H, , , , ,space,2000,2,,001,2021-08-19_16h42.56.440,natb3,2021.2.3,Win32,59.79073244,61150dc88df7514d99d56af5,611e07ecdcc96256ae8d5b80,611e7bf4ccad7a569a0a8782,0.4408,
,,,,space,,0,205,205,190,1,P, , , , ,space,2000,2,,001,2021-08-19_16h42.56.440,natb3,2021.2.3,Win32,59.79073244,61150dc88df7514d99d56af5,611e07ecdcc96256ae8d5b80,611e7bf4ccad7a569a0a8782,0.4638,
,,,,space,,0,206,206,256,1,Q, , , , ,space,2000,2,,001,2021-08-19_16h42.56.440,natb3,2021.2.3,Win32,59.79073244,61150dc88df7514d99d56af5,611e07ecdcc96256ae8d5b80,611e7bf4ccad7a569a0a8782,0.395,
,,,,space,,0,207,207,99,1,N, , , , ,space,2500,2.5,,001,2021-08-19_16h42.56.440,natb3,2021.2.3,Win32,59.79073244,61150dc88df7514d99d56af5,611e07ecdcc96256ae8d5b80,611e7bf4ccad7a569a0a8782,0.4511,
,,,,space,,0,208,208,1,1,W, , , , ,space,2000,2,,001,2021-08-19_16h42.56.440,natb3,2021.2.3,Win32,59.79073244,61150dc88df7514d99d56af5,611e07ecdcc96256ae8d5b80,611e7bf4ccad7a569a0a8782,0.4214,
,,,,space,,0,209,209,144,1,Q, , , , ,space,2500,2.5,,001,2021-08-19_16h42.56.440,natb3,2021.2.3,Win32,59.79073244,61150dc88df7514d99d56af5,611e07ecdcc96256ae8d5b80,611e7bf4ccad7a569a0a8782,0.4189,
,,,,space,,0,210,210,0,1,Q, , , , ,space,1500,1.5,,001,2021-08-19_16h42.56.440,natb3,2021.2.3,Win32,59.79073244,61150dc88df7514d99d56af5,611e07ecdcc96256ae8d5b80,611e7bf4ccad7a569a0a8782,0.5045,
,,,,,,0,211,211,179,1,X, ,9, ,2,,1500,1.5,,001,2021-08-19_16h42.56.440,natb3,2021.2.3,Win32,59.79073244,61150dc88df7514d99d56af5,611e07ecdcc96256ae8d5b80,611e7bf4ccad7a569a0a8782,,
,,,,space,,0,212,212,81,1,S, , , , ,space,2000,2,,001,2021-08-19_16h42.56.440,natb3,2021.2.3,Win32,59.79073244,61150dc88df7514d99d56af5,611e07ecdcc96256ae8d5b80,611e7bf4ccad7a569a0a8782,0.4707,
,,,,,,0,213,213,195,1,X, , , , ,,1500,1.5,,001,2021-08-19_16h42.56.440,natb3,2021.2.3,Win32,59.79073244,61150dc88df7514d99d56af5,611e07ecdcc96256ae8d5b80,611e7bf4ccad7a569a0a8782,,
,,,,,,0,214,214,74,1,X, ,4,3,2,,1500,1.5,,001,2021-08-19_16h42.56.440,natb3,2021.2.3,Win32,59.79073244,61150dc88df7514d99d56af5,611e07ecdcc96256ae8d5b80,611e7bf4ccad7a569a0a8782,,
,,,,,,0,215,215,175,1,X,7, ,4,2,,1500,1.5,,001,2021-08-19_16h42.56.440,natb3,2021.2.3,Win32,59.79073244,61150dc88df7514d99d56af5,611e07ecdcc96256ae8d5b80,611e7bf4ccad7a569a0a8782,,
,,,,space,,0,216,216,294,1,T, , , , ,space,2000,2,,001,2021-08-19_16h42.56.440,natb3,2021.2.3,Win32,59.79073244,61150dc88df7514d99d56af5,611e07ecdcc96256ae8d5b80,611e7bf4ccad7a569a0a8782,0.4011,
,,,,space,,0,217,217,57,1,K, , , , ,space,2500,2.5,,001,2021-08-19_16h42.56.440,natb3,2021.2.3,Win32,59.79073244,61150dc88df7514d99d56af5,611e07ecdcc96256ae8d5b80,611e7bf4ccad7a569a0a8782,0.4489,
,,,,space,,0,218,218,324,1,Q, , , , ,space,2000,2,,001,2021-08-19_16h42.56.440,natb3,2021.2.3,Win32,59.79073244,61150dc88df7514d99d56af5,611e07ecdcc96256ae8d5b80,611e7bf4ccad7a569a0a8782,0.5137,
,,,,space,,0,219,219,63,1,B, , , , ,space,2000,2,,001,2021-08-19_16h42.56.440,natb3,2021.2.3,Win32,59.79073244,61150dc88df7514d99d56af5,611e07ecdcc96256ae8d5b80,611e7bf4ccad7a569a0a8782,0.4878,
,,,,,,0,220,220,171,1,X, , , , ,,1500,1.5,,001,2021-08-19_16h42.56.440,natb3,2021.2.3,Win32,59.79073244,61150dc88df7514d99d56af5,611e07ecdcc96256ae8d5b80,611e7bf4ccad7a569a0a8782,,
,,,,space,,0,221,221,83,1,D, , , , ,space,2000,2,,001,2021-08-19_16h42.56.440,natb3,2021.2.3,Win32,59.79073244,61150dc88df7514d99d56af5,611e07ecdcc96256ae8d5b80,611e7bf4ccad7a569a0a8782,0.5787,
,,,,space,,0,222,222,61,1,C, , , , ,space,2000,2,,001,2021-08-19_16h42.56.440,natb3,2021.2.3,Win32,59.79073244,61150dc88df7514d99d56af5,611e07ecdcc96256ae8d5b80,611e7bf4ccad7a569a0a8782,0.4377,
,,,,space,,0,223,223,164,1,H, , , , ,space,2500,2.5,,001,2021-08-19_16h42.56.440,natb3,2021.2.3,Win32,59.79073244,61150dc88df7514d99d56af5,611e07ecdcc96256ae8d5b80,611e7bf4ccad7a569a0a8782,0.3796,
,,,,,,0,224,224,23,1,X,1, ,5, ,,2000,2,,001,2021-08-19_16h42.56.440,natb3,2021.2.3,Win32,59.79073244,61150dc88df7514d99d56af5,611e07ecdcc96256ae8d5b80,611e7bf4ccad7a569a0a8782,,
,,,,space,,0,225,225,30,1,N, , , , ,space,2500,2.5,,001,2021-08-19_16h42.56.440,natb3,2021.2.3,Win32,59.79073244,61150dc88df7514d99d56af5,611e07ecdcc96256ae8d5b80,611e7bf4ccad7a569a0a8782,0.4749,
,,,,,,0,226,226,325,1,X, , , , ,,2500,2.5,,001,2021-08-19_16h42.56.440,natb3,2021.2.3,Win32,59.79073244,61150dc88df7514d99d56af5,611e07ecdcc96256ae8d5b80,611e7bf4ccad7a569a0a8782,,
,,,,,,0,227,227,218,1,X,1,3, ,8,,1500,1.5,,001,2021-08-19_16h42.56.440,natb3,2021.2.3,Win32,59.79073244,61150dc88df7514d99d56af5,611e07ecdcc96256ae8d5b80,611e7bf4ccad7a569a0a8782,,
,,,,space,,0,228,228,210,1,M, , , , ,space,1500,1.5,,001,2021-08-19_16h42.56.440,natb3,2021.2.3,Win32,59.79073244,61150dc88df7514d99d56af5,611e07ecdcc96256ae8d5b80,611e7bf4ccad7a569a0a8782,0.5339,
,,,,space,,0,229,229,308,1,G, , , , ,space,1500,1.5,,001,2021-08-19_16h42.56.440,natb3,2021.2.3,Win32,59.79073244,61150dc88df7514d99d56af5,611e07ecdcc96256ae8d5b80,611e7bf4ccad7a569a0a8782,0.4458,
,,,,,,0,230,230,145,1,X, , , , ,,2000,2,,001,2021-08-19_16h42.56.440,natb3,2021.2.3,Win32,59.79073244,61150dc88df7514d99d56af5,611e07ecdcc96256ae8d5b80,611e7bf4ccad7a569a0a8782,,
,,,,space,,0,231,231,167,1,K, , , , ,space,1500,1.5,,001,2021-08-19_16h42.56.440,natb3,2021.2.3,Win32,59.79073244,61150dc88df7514d99d56af5,611e07ecdcc96256ae8d5b80,611e7bf4ccad7a569a0a8782,0.5703,
,,,,space,,0,232,232,241,1,G, , , , ,space,2500,2.5,,001,2021-08-19_16h42.56.440,natb3,2021.2.3,Win32,59.79073244,61150dc88df7514d99d56af5,611e07ecdcc96256ae8d5b80,611e7bf4ccad7a569a0a8782,0.3818,
,,,,space,,0,233,233,303,1,A, , , , ,space,2000,2,,001,2021-08-19_16h42.56.440,natb3,2021.2.3,Win32,59.79073244,61150dc88df7514d99d56af5,611e07ecdcc96256ae8d5b80,611e7bf4ccad7a569a0a8782,0.4664,
,,,,space,,0,234,234,286,1,N, , , , ,space,1500,1.5,,001,2021-08-19_16h42.56.440,natb3,2021.2.3,Win32,59.79073244,61150dc88df7514d99d56af5,611e07ecdcc96256ae8d5b80,611e7bf4ccad7a569a0a8782,0.416,
,,,,space,,0,235,235,37,1,E, , , , ,space,2500,2.5,,001,2021-08-19_16h42.56.440,natb3,2021.2.3,Win32,59.79073244,61150dc88df7514d99d56af5,611e07ecdcc96256ae8d5b80,611e7bf4ccad7a569a0a8782,0.4662,
,,,,,,0,236,236,33,1,X, , , , ,,1500,1.5,,001,2021-08-19_16h42.56.440,natb3,2021.2.3,Win32,59.79073244,61150dc88df7514d99d56af5,611e07ecdcc96256ae8d5b80,611e7bf4ccad7a569a0a8782,,
,,,,,,0,237,237,43,1,X, ,6, ,2,,2500,2.5,,001,2021-08-19_16h42.56.440,natb3,2021.2.3,Win32,59.79073244,61150dc88df7514d99d56af5,611e07ecdcc96256ae8d5b80,611e7bf4ccad7a569a0a8782,,
,,,,,,0,238,238,93,1,X,5, ,7, ,,2500,2.5,,001,2021-08-19_16h42.56.440,natb3,2021.2.3,Win32,59.79073244,61150dc88df7514d99d56af5,611e07ecdcc96256ae8d5b80,611e7bf4ccad7a569a0a8782,,
,,,,space,,0,239,239,262,1,Y, , , , ,space,2500,2.5,,001,2021-08-19_16h42.56.440,natb3,2021.2.3,Win32,59.79073244,61150dc88df7514d99d56af5,611e07ecdcc96256ae8d5b80,611e7bf4ccad7a569a0a8782,0.5757,
,,,,space,,0,240,240,42,1,U, , , , ,space,1500,1.5,,001,2021-08-19_16h42.56.440,natb3,2021.2.3,Win32,59.79073244,61150dc88df7514d99d56af5,611e07ecdcc96256ae8d5b80,611e7bf4ccad7a569a0a8782,0.5632,
,,,,space,,0,241,241,223,1,Q, , , , ,space,2000,2,,001,2021-08-19_16h42.56.440,natb3,2021.2.3,Win32,59.79073244,61150dc88df7514d99d56af5,611e07ecdcc96256ae8d5b80,611e7bf4ccad7a569a0a8782,0.5529,
,,,,,,0,242,242,46,1,X, , , , ,,2000,2,,001,2021-08-19_16h42.56.440,natb3,2021.2.3,Win32,59.79073244,61150dc88df7514d99d56af5,611e07ecdcc96256ae8d5b80,611e7bf4ccad7a569a0a8782,,
,,,,space,,0,243,243,137,1,C, , , , ,space,2500,2.5,,001,2021-08-19_16h42.56.440,natb3,2021.2.3,Win32,59.79073244,61150dc88df7514d99d56af5,611e07ecdcc96256ae8d5b80,611e7bf4ccad7a569a0a8782,0.3793,
,,,,space,,0,244,244,333,1,I, , , , ,space,1500,1.5,,001,2021-08-19_16h42.56.440,natb3,2021.2.3,Win32,59.79073244,61150dc88df7514d99d56af5,611e07ecdcc96256ae8d5b80,611e7bf4ccad7a569a0a8782,0.4703,
,,,,space,,0,245,245,293,1,R, , , , ,space,2500,2.5,,001,2021-08-19_16h42.56.440,natb3,2021.2.3,Win32,59.79073244,61150dc88df7514d99d56af5,611e07ecdcc96256ae8d5b80,611e7bf4ccad7a569a0a8782,0.3834,
,,,,,,0,246,246,335,1,P,,,,,space,1500,1.5,,001,2021-08-19_16h42.56.440,natb3,2021.2.3,Win32,59.79073244,61150dc88df7514d99d56af5,611e07ecdcc96256ae8d5b80,611e7bf4ccad7a569a0a8782,,
,,,,space,,0,247,247,251,1,B, , , , ,space,1500,1.5,,001,2021-08-19_16h42.56.440,natb3,2021.2.3,Win32,59.79073244,61150dc88df7514d99d56af5,611e07ecdcc96256ae8d5b80,611e7bf4ccad7a569a0a8782,0.4743,
,,,,space,,0,248,248,24,1,L, , , , ,space,2500,2.5,,001,2021-08-19_16h42.56.440,natb3,2021.2.3,Win32,59.79073244,61150dc88df7514d99d56af5,611e07ecdcc96256ae8d5b80,611e7bf4ccad7a569a0a8782,0.451,
,,,,space,,0,249,249,274,1,F, , , , ,space,2000,2,,001,2021-08-19_16h42.56.440,natb3,2021.2.3,Win32,59.79073244,61150dc88df7514d99d56af5,611e07ecdcc96256ae8d5b80,611e7bf4ccad7a569a0a8782,0.3715,
,,,,space,,0,250,250,112,1,Q, , , , ,space,2500,2.5,,001,2021-08-19_16h42.56.440,natb3,2021.2.3,Win32,59.79073244,61150dc88df7514d99d56af5,611e07ecdcc96256ae8d5b80,611e7bf4ccad7a569a0a8782,0.3707,
,,,,space,,0,251,251,150,1,T, , , , ,space,2500,2.5,,001,2021-08-19_16h42.56.440,natb3,2021.2.3,Win32,59.79073244,61150dc88df7514d99d56af5,611e07ecdcc96256ae8d5b80,611e7bf4ccad7a569a0a8782,0.3344,
,,,,space,,0,252,252,87,1,H, , , , ,space,1500,1.5,,001,2021-08-19_16h42.56.440,natb3,2021.2.3,Win32,59.79073244,61150dc88df7514d99d56af5,611e07ecdcc96256ae8d5b80,611e7bf4ccad7a569a0a8782,0.3827,
,,,,space,,0,253,253,253,1,N, , , , ,space,2500,2.5,,001,2021-08-19_16h42.56.440,natb3,2021.2.3,Win32,59.79073244,61150dc88df7514d99d56af5,611e07ecdcc96256ae8d5b80,611e7bf4ccad7a569a0a8782,0.5506,
,,,,,,0,254,254,54,1,X, , , , ,,2000,2,,001,2021-08-19_16h42.56.440,natb3,2021.2.3,Win32,59.79073244,61150dc88df7514d99d56af5,611e07ecdcc96256ae8d5b80,611e7bf4ccad7a569a0a8782,,
,,,,space,,0,255,255,172,1,C, , , , ,space,1500,1.5,,001,2021-08-19_16h42.56.440,natb3,2021.2.3,Win32,59.79073244,61150dc88df7514d99d56af5,611e07ecdcc96256ae8d5b80,611e7bf4ccad7a569a0a8782,0.5076,
,,,,space,,0,256,256,327,1,E, , , , ,space,1500,1.5,,001,2021-08-19_16h42.56.440,natb3,2021.2.3,Win32,59.79073244,61150dc88df7514d99d56af5,611e07ecdcc96256ae8d5b80,611e7bf4ccad7a569a0a8782,0.4023,
,,,,space,,0,257,257,239,1,X, , , , ,,2000,2,,001,2021-08-19_16h42.56.440,natb3,2021.2.3,Win32,59.79073244,61150dc88df7514d99d56af5,611e07ecdcc96256ae8d5b80,611e7bf4ccad7a569a0a8782,0.3734,
,,,,space,,0,258,258,72,1,T, , , , ,space,1500,1.5,,001,2021-08-19_16h42.56.440,natb3,2021.2.3,Win32,59.79073244,61150dc88df7514d99d56af5,611e07ecdcc96256ae8d5b80,611e7bf4ccad7a569a0a8782,0.4017,
,,,,,,0,259,259,129,1,X,2,3,5, ,,1500,1.5,,001,2021-08-19_16h42.56.440,natb3,2021.2.3,Win32,59.79073244,61150dc88df7514d99d56af5,611e07ecdcc96256ae8d5b80,611e7bf4ccad7a569a0a8782,,
,,,,space,,0,260,260,264,1,U, , , , ,space,2000,2,,001,2021-08-19_16h42.56.440,natb3,2021.2.3,Win32,59.79073244,61150dc88df7514d99d56af5,611e07ecdcc96256ae8d5b80,611e7bf4ccad7a569a0a8782,0.3865,
,,,,space,,0,261,261,28,1,V, , , , ,space,1500,1.5,,001,2021-08-19_16h42.56.440,natb3,2021.2.3,Win32,59.79073244,61150dc88df7514d99d56af5,611e07ecdcc96256ae8d5b80,611e7bf4ccad7a569a0a8782,0.4534,
,,,,space,,0,262,262,169,1,L, , , , ,space,2500,2.5,,001,2021-08-19_16h42.56.440,natb3,2021.2.3,Win32,59.79073244,61150dc88df7514d99d56af5,611e07ecdcc96256ae8d5b80,611e7bf4ccad7a569a0a8782,0.3498,
,,,,space,,0,263,263,192,1,A, , , , ,space,2000,2,,001,2021-08-19_16h42.56.440,natb3,2021.2.3,Win32,59.79073244,61150dc88df7514d99d56af5,611e07ecdcc96256ae8d5b80,611e7bf4ccad7a569a0a8782,0.4437,
,,,,,,0,264,264,18,1,X, ,2,5,8,,2500,2.5,,001,2021-08-19_16h42.56.440,natb3,2021.2.3,Win32,59.79073244,61150dc88df7514d99d56af5,611e07ecdcc96256ae8d5b80,611e7bf4ccad7a569a0a8782,,
,,,,space,,0,265,265,331,1,Y, , , , ,space,2500,2.5,,001,2021-08-19_16h42.56.440,natb3,2021.2.3,Win32,59.79073244,61150dc88df7514d99d56af5,611e07ecdcc96256ae8d5b80,611e7bf4ccad7a569a0a8782,0.4664,
,,,,space,,0,266,266,212,1,Q, , , , ,space,2500,2.5,,001,2021-08-19_16h42.56.440,natb3,2021.2.3,Win32,59.79073244,61150dc88df7514d99d56af5,611e07ecdcc96256ae8d5b80,611e7bf4ccad7a569a0a8782,0.3681,
,,,,space,,0,267,267,161,1,F, , , , ,space,1500,1.5,,001,2021-08-19_16h42.56.440,natb3,2021.2.3,Win32,59.79073244,61150dc88df7514d99d56af5,611e07ecdcc96256ae8d5b80,611e7bf4ccad7a569a0a8782,0.4331,
,,,,,,0,268,268,153,1,X,4,7, ,6,,2000,2,,001,2021-08-19_16h42.56.440,natb3,2021.2.3,Win32,59.79073244,61150dc88df7514d99d56af5,611e07ecdcc96256ae8d5b80,611e7bf4ccad7a569a0a8782,,
,,,,space,,0,269,269,114,1,E, , , , ,space,2000,2,,001,2021-08-19_16h42.56.440,natb3,2021.2.3,Win32,59.79073244,61150dc88df7514d99d56af5,611e07ecdcc96256ae8d5b80,611e7bf4ccad7a569a0a8782,0.4678,
,,,,space,,0,270,270,215,1,E, , , , ,space,2500,2.5,,001,2021-08-19_16h42.56.440,natb3,2021.2.3,Win32,59.79073244,61150dc88df7514d99d56af5,611e07ecdcc96256ae8d5b80,611e7bf4ccad7a569a0a8782,0.3672,
,,,,space,,0,271,271,126,1,A, , , , ,space,2500,2.5,,001,2021-08-19_16h42.56.440,natb3,2021.2.3,Win32,59.79073244,61150dc88df7514d99d56af5,611e07ecdcc96256ae8d5b80,611e7bf4ccad7a569a0a8782,0.4528,
,,,,space,,0,272,272,320,1,B, , , , ,space,1500,1.5,,001,2021-08-19_16h42.56.440,natb3,2021.2.3,Win32,59.79073244,61150dc88df7514d99d56af5,611e07ecdcc96256ae8d5b80,611e7bf4ccad7a569a0a8782,0.5834,
,,,,space,,0,273,273,59,1,Z, , , , ,space,2000,2,,001,2021-08-19_16h42.56.440,natb3,2021.2.3,Win32,59.79073244,61150dc88df7514d99d56af5,611e07ecdcc96256ae8d5b80,611e7bf4ccad7a569a0a8782,0.3932,
,,,,space,,0,274,274,17,1,F, , , , ,space,2500,2.5,,001,2021-08-19_16h42.56.440,natb3,2021.2.3,Win32,59.79073244,61150dc88df7514d99d56af5,611e07ecdcc96256ae8d5b80,611e7bf4ccad7a569a0a8782,0.3342,
,,,,space,,0,275,275,36,1,W, , , , ,space,2000,2,,001,2021-08-19_16h42.56.440,natb3,2021.2.3,Win32,59.79073244,61150dc88df7514d99d56af5,611e07ecdcc96256ae8d5b80,611e7bf4ccad7a569a0a8782,0.374,
,,,,space,,0,276,276,92,1,Z, , , , ,space,1500,1.5,,001,2021-08-19_16h42.56.440,natb3,2021.2.3,Win32,59.79073244,61150dc88df7514d99d56af5,611e07ecdcc96256ae8d5b80,611e7bf4ccad7a569a0a8782,0.3836,
,,,,space,,0,277,277,109,1,U, , , , ,space,1500,1.5,,001,2021-08-19_16h42.56.440,natb3,2021.2.3,Win32,59.79073244,61150dc88df7514d99d56af5,611e07ecdcc96256ae8d5b80,611e7bf4ccad7a569a0a8782,0.433,
,,,,space,,0,278,278,162,1,X,1,6, ,2,,1500,1.5,,001,2021-08-19_16h42.56.440,natb3,2021.2.3,Win32,59.79073244,61150dc88df7514d99d56af5,611e07ecdcc96256ae8d5b80,611e7bf4ccad7a569a0a8782,0.3371,
,,,,space,,0,279,279,306,1,D, , , , ,space,2000,2,,001,2021-08-19_16h42.56.440,natb3,2021.2.3,Win32,59.79073244,61150dc88df7514d99d56af5,611e07ecdcc96256ae8d5b80,611e7bf4ccad7a569a0a8782,0.3744,
,,,,space,,0,280,280,246,1,L, , , , ,space,2500,2.5,,001,2021-08-19_16h42.56.440,natb3,2021.2.3,Win32,59.79073244,61150dc88df7514d99d56af5,611e07ecdcc96256ae8d5b80,611e7bf4ccad7a569a0a8782,0.3772,
,,,,space,,0,281,281,62,1,V, , , , ,space,1500,1.5,,001,2021-08-19_16h42.56.440,natb3,2021.2.3,Win32,59.79073244,61150dc88df7514d99d56af5,611e07ecdcc96256ae8d5b80,611e7bf4ccad7a569a0a8782,0.433,
,,,,space,,0,282,282,10,1,O, , , , ,space,2000,2,,001,2021-08-19_16h42.56.440,natb3,2021.2.3,Win32,59.79073244,61150dc88df7514d99d56af5,611e07ecdcc96256ae8d5b80,611e7bf4ccad7a569a0a8782,0.5501,
,,,,,,0,283,283,268,1,X,6, ,3, ,,2500,2.5,,001,2021-08-19_16h42.56.440,natb3,2021.2.3,Win32,59.79073244,61150dc88df7514d99d56af5,611e07ecdcc96256ae8d5b80,611e7bf4ccad7a569a0a8782,,
,,,,space,,0,284,284,155,1,O, , , , ,space,1500,1.5,,001,2021-08-19_16h42.56.440,natb3,2021.2.3,Win32,59.79073244,61150dc88df7514d99d56af5,611e07ecdcc96256ae8d5b80,611e7bf4ccad7a569a0a8782,0.4842,
,,,,,,0,285,285,82,1,X,4,6,1,7,,2000,2,,001,2021-08-19_16h42.56.440,natb3,2021.2.3,Win32,59.79073244,61150dc88df7514d99d56af5,611e07ecdcc96256ae8d5b80,611e7bf4ccad7a569a0a8782,,
,,,,space,,0,286,286,328,1,R, , , , ,space,1500,1.5,,001,2021-08-19_16h42.56.440,natb3,2021.2.3,Win32,59.79073244,61150dc88df7514d99d56af5,611e07ecdcc96256ae8d5b80,611e7bf4ccad7a569a0a8782,0.4328,
,,,,space,,0,287,287,227,1,T, , , , ,space,1500,1.5,,001,2021-08-19_16h42.56.440,natb3,2021.2.3,Win32,59.79073244,61150dc88df7514d99d56af5,611e07ecdcc96256ae8d5b80,611e7bf4ccad7a569a0a8782,0.4338,
,,,,space,,0,288,288,88,1,J, , , , ,space,2500,2.5,,001,2021-08-19_16h42.56.440,natb3,2021.2.3,Win32,59.79073244,61150dc88df7514d99d56af5,611e07ecdcc96256ae8d5b80,611e7bf4ccad7a569a0a8782,0.5059,
,,,,,,0,289,289,243,1,X, , , , ,,2500,2.5,,001,2021-08-19_16h42.56.440,natb3,2021.2.3,Win32,59.79073244,61150dc88df7514d99d56af5,611e07ecdcc96256ae8d5b80,611e7bf4ccad7a569a0a8782,,
,,,,space,,0,290,290,151,1,Y, , , , ,space,2500,2.5,,001,2021-08-19_16h42.56.440,natb3,2021.2.3,Win32,59.79073244,61150dc88df7514d99d56af5,611e07ecdcc96256ae8d5b80,611e7bf4ccad7a569a0a8782,0.5066,
,,,,space,,0,291,291,34,1,Q, , , , ,space,2500,2.5,,001,2021-08-19_16h42.56.440,natb3,2021.2.3,Win32,59.79073244,61150dc88df7514d99d56af5,611e07ecdcc96256ae8d5b80,611e7bf4ccad7a569a0a8782,0.4931,
,,,,space,,0,292,292,206,1,V, , , , ,space,2000,2,,001,2021-08-19_16h42.56.440,natb3,2021.2.3,Win32,59.79073244,61150dc88df7514d99d56af5,611e07ecdcc96256ae8d5b80,611e7bf4ccad7a569a0a8782,0.5496,
,,,,space,,0,293,293,21,1,J, , , , ,space,1500,1.5,,001,2021-08-19_16h42.56.440,natb3,2021.2.3,Win32,59.79073244,61150dc88df7514d99d56af5,611e07ecdcc96256ae8d5b80,611e7bf4ccad7a569a0a8782,0.4667,
,,,,space,,0,294,294,283,1,C, , , , ,space,1500,1.5,,001,2021-08-19_16h42.56.440,natb3,2021.2.3,Win32,59.79073244,61150dc88df7514d99d56af5,611e07ecdcc96256ae8d5b80,611e7bf4ccad7a569a0a8782,0.5202,
,,,,space,,0,295,295,139,1,V, , , , ,space,2000,2,,001,2021-08-19_16h42.56.440,natb3,2021.2.3,Win32,59.79073244,61150dc88df7514d99d56af5,611e07ecdcc96256ae8d5b80,611e7bf4ccad7a569a0a8782,0.4012,
,,,,space,,0,296,296,159,1,S, , , , ,space,2500,2.5,,001,2021-08-19_16h42.56.440,natb3,2021.2.3,Win32,59.79073244,61150dc88df7514d99d56af5,611e07ecdcc96256ae8d5b80,611e7bf4ccad7a569a0a8782,0.4218,
,,,,,,0,297,297,35,1,X, , , , ,,2500,2.5,,001,2021-08-19_16h42.56.440,natb3,2021.2.3,Win32,59.79073244,61150dc88df7514d99d56af5,611e07ecdcc96256ae8d5b80,611e7bf4ccad7a569a0a8782,,
,,,,,,0,298,298,60,1,X,7,3,5, ,,1500,1.5,,001,2021-08-19_16h42.56.440,natb3,2021.2.3,Win32,59.79073244,61150dc88df7514d99d56af5,611e07ecdcc96256ae8d5b80,611e7bf4ccad7a569a0a8782,,
,,,,space,,0,299,299,244,1,J, , , , ,space,1500,1.5,,001,2021-08-19_16h42.56.440,natb3,2021.2.3,Win32,59.79073244,61150dc88df7514d99d56af5,611e07ecdcc96256ae8d5b80,611e7bf4ccad7a569a0a8782,0.5486,
,,,,space,,0,300,300,14,1,S, , , , ,space,2500,2.5,,001,2021-08-19_16h42.56.440,natb3,2021.2.3,Win32,59.79073244,61150dc88df7514d99d56af5,611e07ecdcc96256ae8d5b80,611e7bf4ccad7a569a0a8782,0.5272,
,,,,space,,0,301,301,165,1,J, , , , ,space,2500,2.5,,001,2021-08-19_16h42.56.440,natb3,2021.2.3,Win32,59.79073244,61150dc88df7514d99d56af5,611e07ecdcc96256ae8d5b80,611e7bf4ccad7a569a0a8782,0.5437,
,,,,space,,0,302,302,188,1,I, , , , ,space,2500,2.5,,001,2021-08-19_16h42.56.440,natb3,2021.2.3,Win32,59.79073244,61150dc88df7514d99d56af5,611e07ecdcc96256ae8d5b80,611e7bf4ccad7a569a0a8782,0.4557,
,,,,space,,0,303,303,285,1,B, , , , ,space,1500,1.5,,001,2021-08-19_16h42.56.440,natb3,2021.2.3,Win32,59.79073244,61150dc88df7514d99d56af5,611e07ecdcc96256ae8d5b80,611e7bf4ccad7a569a0a8782,0.4681,
,,,,space,,0,304,304,214,1,W, , , , ,space,2000,2,,001,2021-08-19_16h42.56.440,natb3,2021.2.3,Win32,59.79073244,61150dc88df7514d99d56af5,611e07ecdcc96256ae8d5b80,611e7bf4ccad7a569a0a8782,0.487,
,,,,space,,0,305,305,108,1,Y, , , , ,space,2500,2.5,,001,2021-08-19_16h42.56.440,natb3,2021.2.3,Win32,59.79073244,61150dc88df7514d99d56af5,611e07ecdcc96256ae8d5b80,611e7bf4ccad7a569a0a8782,0.489,
,,,,space,,0,306,306,267,1,P, , , , ,space,2000,2,,001,2021-08-19_16h42.56.440,natb3,2021.2.3,Win32,59.79073244,61150dc88df7514d99d56af5,611e07ecdcc96256ae8d5b80,611e7bf4ccad7a569a0a8782,0.4893,
,,,,,,0,307,307,107,1,X,9,3, ,2,,2000,2,,001,2021-08-19_16h42.56.440,natb3,2021.2.3,Win32,59.79073244,61150dc88df7514d99d56af5,611e07ecdcc96256ae8d5b80,611e7bf4ccad7a569a0a8782,,
,,,,space,,0,308,308,19,1,G, , , , ,space,1500,1.5,,001,2021-08-19_16h42.56.440,natb3,2021.2.3,Win32,59.79073244,61150dc88df7514d99d56af5,611e07ecdcc96256ae8d5b80,611e7bf4ccad7a569a0a8782,0.5497,
,,,,space,,0,309,309,260,1,R, , , , ,space,2000,2,,001,2021-08-19_16h42.56.440,natb3,2021.2.3,Win32,59.79073244,61150dc88df7514d99d56af5,611e07ecdcc96256ae8d5b80,611e7bf4ccad7a569a0a8782,0.5679,
,,,,space,,0,310,310,58,1,L, , , , ,space,2000,2,,001,2021-08-19_16h42.56.440,natb3,2021.2.3,Win32,59.79073244,61150dc88df7514d99d56af5,611e07ecdcc96256ae8d5b80,611e7bf4ccad7a569a0a8782,0.4563,
,,,,space,,0,311,311,68,1,W, , , , ,space,2500,2.5,,001,2021-08-19_16h42.56.440,natb3,2021.2.3,Win32,59.79073244,61150dc88df7514d99d56af5,611e07ecdcc96256ae8d5b80,611e7bf4ccad7a569a0a8782,0.5662,
,,,,space,,0,312,312,209,1,N, , , , ,space,2000,2,,001,2021-08-19_16h42.56.440,natb3,2021.2.3,Win32,59.79073244,61150dc88df7514d99d56af5,611e07ecdcc96256ae8d5b80,611e7bf4ccad7a569a0a8782,0.4555,
,,,,space,,0,313,313,3,1,R, , , , ,space,2000,2,,001,2021-08-19_16h42.56.440,natb3,2021.2.3,Win32,59.79073244,61150dc88df7514d99d56af5,611e07ecdcc96256ae8d5b80,611e7bf4ccad7a569a0a8782,0.3861,
,,,,,,0,314,314,203,1,X, , , , ,,2500,2.5,,001,2021-08-19_16h42.56.440,natb3,2021.2.3,Win32,59.79073244,61150dc88df7514d99d56af5,611e07ecdcc96256ae8d5b80,611e7bf4ccad7a569a0a8782,,
,,,,space,,0,315,315,184,1,T, , , , ,space,2000,2,,001,2021-08-19_16h42.56.440,natb3,2021.2.3,Win32,59.79073244,61150dc88df7514d99d56af5,611e07ecdcc96256ae8d5b80,611e7bf4ccad7a569a0a8782,0.4667,
,,,,space,,0,316,316,97,1,B, , , , ,space,2500,2.5,,001,2021-08-19_16h42.56.440,natb3,2021.2.3,Win32,59.79073244,61150dc88df7514d99d56af5,611e07ecdcc96256ae8d5b80,611e7bf4ccad7a569a0a8782,0.4517,
,,,,,,0,317,317,66,1,X, ,4,7, ,,2000,2,,001,2021-08-19_16h42.56.440,natb3,2021.2.3,Win32,59.79073244,61150dc88df7514d99d56af5,611e07ecdcc96256ae8d5b80,611e7bf4ccad7a569a0a8782,,
,,,,space,,0,318,318,119,1,Y, , , , ,space,2500,2.5,,001,2021-08-19_16h42.56.440,natb3,2021.2.3,Win32,59.79073244,61150dc88df7514d99d56af5,611e07ecdcc96256ae8d5b80,611e7bf4ccad7a569a0a8782,0.4673,
,,,,space,,0,319,319,136,1,Z, , , , ,space,2500,2.5,,001,2021-08-19_16h42.56.440,natb3,2021.2.3,Win32,59.79073244,61150dc88df7514d99d56af5,611e07ecdcc96256ae8d5b80,611e7bf4ccad7a569a0a8782,0.5008,
,,,,,,0,320,320,255,1,X, , , , ,,1500,1.5,,001,2021-08-19_16h42.56.440,natb3,2021.2.3,Win32,59.79073244,61150dc88df7514d99d56af5,611e07ecdcc96256ae8d5b80,611e7bf4ccad7a569a0a8782,,
,,,,space,,0,321,321,16,1,D, , , , ,space,1500,1.5,,001,2021-08-19_16h42.56.440,natb3,2021.2.3,Win32,59.79073244,61150dc88df7514d99d56af5,611e07ecdcc96256ae8d5b80,611e7bf4ccad7a569a0a8782,0.5037,
,,,,space,,0,322,322,194,1,D, , , , ,space,2000,2,,001,2021-08-19_16h42.56.440,natb3,2021.2.3,Win32,59.79073244,61150dc88df7514d99d56af5,611e07ecdcc96256ae8d5b80,611e7bf4ccad7a569a0a8782,0.4507,
,,,,space,,0,323,323,257,1,W, , , , ,space,2000,2,,001,2021-08-19_16h42.56.440,natb3,2021.2.3,Win32,59.79073244,61150dc88df7514d99d56af5,611e07ecdcc96256ae8d5b80,611e7bf4ccad7a569a0a8782,0.6332,
,,,,space,,0,324,324,5,1,T, , , , ,space,2000,2,,001,2021-08-19_16h42.56.440,natb3,2021.2.3,Win32,59.79073244,61150dc88df7514d99d56af5,611e07ecdcc96256ae8d5b80,611e7bf4ccad7a569a0a8782,0.4259,
,,,,space,,0,325,325,297,1,U, , , , ,space,2000,2,,001,2021-08-19_16h42.56.440,natb3,2021.2.3,Win32,59.79073244,61150dc88df7514d99d56af5,611e07ecdcc96256ae8d5b80,611e7bf4ccad7a569a0a8782,0.4769,
,,,,space,,0,326,326,2,1,E, , , , ,space,2500,2.5,,001,2021-08-19_16h42.56.440,natb3,2021.2.3,Win32,59.79073244,61150dc88df7514d99d56af5,611e07ecdcc96256ae8d5b80,611e7bf4ccad7a569a0a8782,0.4537,
,,,,space,,0,327,327,50,1,D, , , , ,space,1500,1.5,,001,2021-08-19_16h42.56.440,natb3,2021.2.3,Win32,59.79073244,61150dc88df7514d99d56af5,611e07ecdcc96256ae8d5b80,611e7bf4ccad7a569a0a8782,0.4366,
,,,,,,0,328,328,263,1,X,4, ,6, ,,1500,1.5,,001,2021-08-19_16h42.56.440,natb3,2021.2.3,Win32,59.79073244,61150dc88df7514d99d56af5,611e07ecdcc96256ae8d5b80,611e7bf4ccad7a569a0a8782,,
,,,,space,,0,329,329,176,1,N, , , , ,space,1500,1.5,,001,2021-08-19_16h42.56.440,natb3,2021.2.3,Win32,59.79073244,61150dc88df7514d99d56af5,611e07ecdcc96256ae8d5b80,611e7bf4ccad7a569a0a8782,0.4386,
,,,,space,,0,330,330,104,1,E, , , , ,space,2000,2,,001,2021-08-19_16h42.56.440,natb3,2021.2.3,Win32,59.79073244,61150dc88df7514d99d56af5,611e07ecdcc96256ae8d5b80,611e7bf4ccad7a569a0a8782,0.4001,
,,,,space,,0,331,331,245,1,K, , , , ,space,2000,2,,001,2021-08-19_16h42.56.440,natb3,2021.2.3,Win32,59.79073244,61150dc88df7514d99d56af5,611e07ecdcc96256ae8d5b80,611e7bf4ccad7a569a0a8782,0.433,
,,,,space,,0,332,332,44,1,I, , , , ,space,2500,2.5,,001,2021-08-19_16h42.56.440,natb3,2021.2.3,Win32,59.79073244,61150dc88df7514d99d56af5,611e07ecdcc96256ae8d5b80,611e7bf4ccad7a569a0a8782,0.4387,
,,,,space,,0,333,333,49,1,S, , , , ,space,1500,1.5,,001,2021-08-19_16h42.56.440,natb3,2021.2.3,Win32,59.79073244,61150dc88df7514d99d56af5,611e07ecdcc96256ae8d5b80,611e7bf4ccad7a569a0a8782,0.8498,
,,,,,,0,334,334,12,1,X, , , , ,,1500,1.5,,001,2021-08-19_16h42.56.440,natb3,2021.2.3,Win32,59.79073244,61150dc88df7514d99d56af5,611e07ecdcc96256ae8d5b80,611e7bf4ccad7a569a0a8782,,
,,,,space,,0,335,335,154,1,I, , , , ,space,2500,2.5,,001,2021-08-19_16h42.56.440,natb3,2021.2.3,Win32,59.79073244,61150dc88df7514d99d56af5,611e07ecdcc96256ae8d5b80,611e7bf4ccad7a569a0a8782,0.4827,
