key_resp_2.keys,key_resp_2.rt,key_resp_3.keys,key_resp_3.rt,key_resp.keys,key_resp.rt,key_resp_4.keys,trials.thisRepN,trials.thisTrialN,trials.thisN,trials.thisIndex,trials.ran,stimulus,distractor1,distractor2,distractor3,distractor4,CorrAns,isi_duration,isi_dur_in_seconds,participant,session,date,expName,psychopyVersion,OS,frameRate,PROLIFIC_PID,STUDY_ID,SESSION_ID,key_resp_4.rt
return,1.954,space,12.058,space,0.884,,0,0,0,335,1,P,,,,,space,1500,1.5,,001,2021-08-19_15h55.02,natb3,2021.2.3,MacIntel,62.5,60cfbfd8b5865f350977409d,611e07ecdcc96256ae8d5b80,611e70924513e4d05abf6e6f,
,,,,,,,0,1,1,15,1,X, , , , ,,1500,1.5,,001,2021-08-19_15h55.02,natb3,2021.2.3,MacIntel,62.5,60cfbfd8b5865f350977409d,611e07ecdcc96256ae8d5b80,611e70924513e4d05abf6e6f,
,,,,space,0.425,,0,2,2,258,1,E, , , , ,space,1500,1.5,,001,2021-08-19_15h55.02,natb3,2021.2.3,MacIntel,62.5,60cfbfd8b5865f350977409d,611e07ecdcc96256ae8d5b80,611e70924513e4d05abf6e6f,
,,,,space,0.494,,0,3,3,20,1,H, , , , ,space,1500,1.5,,001,2021-08-19_15h55.02,natb3,2021.2.3,MacIntel,62.5,60cfbfd8b5865f350977409d,611e07ecdcc96256ae8d5b80,611e70924513e4d05abf6e6f,
,,,,space,0.484,,0,4,4,132,1,H, , , , ,space,2500,2.5,,001,2021-08-19_15h55.02,natb3,2021.2.3,MacIntel,62.5,60cfbfd8b5865f350977409d,611e07ecdcc96256ae8d5b80,611e70924513e4d05abf6e6f,
,,,,space,0.508,,0,5,5,17,1,F, , , , ,space,2500,2.5,,001,2021-08-19_15h55.02,natb3,2021.2.3,MacIntel,62.5,60cfbfd8b5865f350977409d,611e07ecdcc96256ae8d5b80,611e70924513e4d05abf6e6f,
,,,,space,0.357,,0,6,6,283,1,C, , , , ,space,1500,1.5,,001,2021-08-19_15h55.02,natb3,2021.2.3,MacIntel,62.5,60cfbfd8b5865f350977409d,611e07ecdcc96256ae8d5b80,611e70924513e4d05abf6e6f,
,,,,space,0.345,,0,7,7,298,1,I, , , , ,space,2000,2,,001,2021-08-19_15h55.02,natb3,2021.2.3,MacIntel,62.5,60cfbfd8b5865f350977409d,611e07ecdcc96256ae8d5b80,611e70924513e4d05abf6e6f,
,,,,space,0.308,,0,8,8,94,1,C, , , , ,space,2000,2,,001,2021-08-19_15h55.02,natb3,2021.2.3,MacIntel,62.5,60cfbfd8b5865f350977409d,611e07ecdcc96256ae8d5b80,611e70924513e4d05abf6e6f,
,,,,space,0.384,,0,9,9,92,1,Z, , , , ,space,1500,1.5,,001,2021-08-19_15h55.02,natb3,2021.2.3,MacIntel,62.5,60cfbfd8b5865f350977409d,611e07ecdcc96256ae8d5b80,611e70924513e4d05abf6e6f,
,,,,space,0.357,,0,10,10,79,1,P, , , , ,space,2000,2,,001,2021-08-19_15h55.02,natb3,2021.2.3,MacIntel,62.5,60cfbfd8b5865f350977409d,611e07ecdcc96256ae8d5b80,611e70924513e4d05abf6e6f,
,,,,space,0.393,,0,11,11,134,1,J, , , , ,space,2000,2,,001,2021-08-19_15h55.02,natb3,2021.2.3,MacIntel,62.5,60cfbfd8b5865f350977409d,611e07ecdcc96256ae8d5b80,611e70924513e4d05abf6e6f,
,,,,space,0.375,,0,12,12,253,1,N, , , , ,space,2500,2.5,,001,2021-08-19_15h55.02,natb3,2021.2.3,MacIntel,62.5,60cfbfd8b5865f350977409d,611e07ecdcc96256ae8d5b80,611e70924513e4d05abf6e6f,
,,,,,,,0,13,13,51,1,X,7,5,8, ,,1500,1.5,,001,2021-08-19_15h55.02,natb3,2021.2.3,MacIntel,62.5,60cfbfd8b5865f350977409d,611e07ecdcc96256ae8d5b80,611e70924513e4d05abf6e6f,
,,,,space,0.371,,0,14,14,250,1,V, , , , ,space,2000,2,,001,2021-08-19_15h55.02,natb3,2021.2.3,MacIntel,62.5,60cfbfd8b5865f350977409d,611e07ecdcc96256ae8d5b80,611e70924513e4d05abf6e6f,
,,,,space,0.309,,0,15,15,323,1,M, , , , ,space,2500,2.5,,001,2021-08-19_15h55.02,natb3,2021.2.3,MacIntel,62.5,60cfbfd8b5865f350977409d,611e07ecdcc96256ae8d5b80,611e70924513e4d05abf6e6f,
,,,,space,0.341,,0,16,16,334,1,O, , , , ,space,1500,1.5,,001,2021-08-19_15h55.02,natb3,2021.2.3,MacIntel,62.5,60cfbfd8b5865f350977409d,611e07ecdcc96256ae8d5b80,611e70924513e4d05abf6e6f,
,,,,space,0.391,,0,17,17,154,1,I, , , , ,space,2500,2.5,,001,2021-08-19_15h55.02,natb3,2021.2.3,MacIntel,62.5,60cfbfd8b5865f350977409d,611e07ecdcc96256ae8d5b80,611e70924513e4d05abf6e6f,
,,,,space,0.317,,0,18,18,54,1,X, , , , ,,2000,2,,001,2021-08-19_15h55.02,natb3,2021.2.3,MacIntel,62.5,60cfbfd8b5865f350977409d,611e07ecdcc96256ae8d5b80,611e70924513e4d05abf6e6f,
,,,,space,0.366,,0,19,19,56,1,J, , , , ,space,1500,1.5,,001,2021-08-19_15h55.02,natb3,2021.2.3,MacIntel,62.5,60cfbfd8b5865f350977409d,611e07ecdcc96256ae8d5b80,611e70924513e4d05abf6e6f,
,,,,space,0.368,,0,20,20,149,1,R, , , , ,space,2000,2,,001,2021-08-19_15h55.02,natb3,2021.2.3,MacIntel,62.5,60cfbfd8b5865f350977409d,611e07ecdcc96256ae8d5b80,611e70924513e4d05abf6e6f,
,,,,,,,0,21,21,158,1,X, , , , ,,1500,1.5,,001,2021-08-19_15h55.02,natb3,2021.2.3,MacIntel,62.5,60cfbfd8b5865f350977409d,611e07ecdcc96256ae8d5b80,611e70924513e4d05abf6e6f,
,,,,,,,0,22,22,229,1,X,8, ,2,6,,2500,2.5,,001,2021-08-19_15h55.02,natb3,2021.2.3,MacIntel,62.5,60cfbfd8b5865f350977409d,611e07ecdcc96256ae8d5b80,611e70924513e4d05abf6e6f,
,,,,space,0.365,,0,23,23,181,1,E, , , , ,space,1500,1.5,,001,2021-08-19_15h55.02,natb3,2021.2.3,MacIntel,62.5,60cfbfd8b5865f350977409d,611e07ecdcc96256ae8d5b80,611e70924513e4d05abf6e6f,
,,,,space,0.364,,0,24,24,317,1,C, , , , ,space,2000,2,,001,2021-08-19_15h55.02,natb3,2021.2.3,MacIntel,62.5,60cfbfd8b5865f350977409d,611e07ecdcc96256ae8d5b80,611e70924513e4d05abf6e6f,
,,,,,,,0,25,25,295,1,X,8,7,5, ,,2500,2.5,,001,2021-08-19_15h55.02,natb3,2021.2.3,MacIntel,62.5,60cfbfd8b5865f350977409d,611e07ecdcc96256ae8d5b80,611e70924513e4d05abf6e6f,
,,,,space,0.424,,0,26,26,284,1,V, , , , ,space,2500,2.5,,001,2021-08-19_15h55.02,natb3,2021.2.3,MacIntel,62.5,60cfbfd8b5865f350977409d,611e07ecdcc96256ae8d5b80,611e70924513e4d05abf6e6f,
,,,,space,0.366,,0,27,27,192,1,A, , , , ,space,2000,2,,001,2021-08-19_15h55.02,natb3,2021.2.3,MacIntel,62.5,60cfbfd8b5865f350977409d,611e07ecdcc96256ae8d5b80,611e70924513e4d05abf6e6f,
,,,,space,0.347,,0,28,28,131,1,G, , , , ,space,1500,1.5,,001,2021-08-19_15h55.02,natb3,2021.2.3,MacIntel,62.5,60cfbfd8b5865f350977409d,611e07ecdcc96256ae8d5b80,611e70924513e4d05abf6e6f,
,,,,space,0.321,,0,29,29,208,1,B, , , , ,space,1500,1.5,,001,2021-08-19_15h55.02,natb3,2021.2.3,MacIntel,62.5,60cfbfd8b5865f350977409d,611e07ecdcc96256ae8d5b80,611e70924513e4d05abf6e6f,
,,,,space,0.281,,0,30,30,226,1,R, , , , ,space,2000,2,,001,2021-08-19_15h55.02,natb3,2021.2.3,MacIntel,62.5,60cfbfd8b5865f350977409d,611e07ecdcc96256ae8d5b80,611e70924513e4d05abf6e6f,
,,,,space,0.342,,0,31,31,146,1,W, , , , ,space,1500,1.5,,001,2021-08-19_15h55.02,natb3,2021.2.3,MacIntel,62.5,60cfbfd8b5865f350977409d,611e07ecdcc96256ae8d5b80,611e70924513e4d05abf6e6f,
,,,,space,0.33,,0,32,32,215,1,E, , , , ,space,2500,2.5,,001,2021-08-19_15h55.02,natb3,2021.2.3,MacIntel,62.5,60cfbfd8b5865f350977409d,611e07ecdcc96256ae8d5b80,611e70924513e4d05abf6e6f,
,,,,,,,0,33,33,4,1,X, , , , ,,2000,2,,001,2021-08-19_15h55.02,natb3,2021.2.3,MacIntel,62.5,60cfbfd8b5865f350977409d,611e07ecdcc96256ae8d5b80,611e70924513e4d05abf6e6f,
,,,,space,0.365,,0,34,34,117,1,T, , , , ,space,2500,2.5,,001,2021-08-19_15h55.02,natb3,2021.2.3,MacIntel,62.5,60cfbfd8b5865f350977409d,611e07ecdcc96256ae8d5b80,611e70924513e4d05abf6e6f,
,,,,,,,0,35,35,282,1,X, , , , ,,2500,2.5,,001,2021-08-19_15h55.02,natb3,2021.2.3,MacIntel,62.5,60cfbfd8b5865f350977409d,611e07ecdcc96256ae8d5b80,611e70924513e4d05abf6e6f,
,,,,space,0.451,,0,36,36,9,1,I, , , , ,space,1500,1.5,,001,2021-08-19_15h55.02,natb3,2021.2.3,MacIntel,62.5,60cfbfd8b5865f350977409d,611e07ecdcc96256ae8d5b80,611e70924513e4d05abf6e6f,
,,,,space,0.403,,0,37,37,237,1,S, , , , ,space,1500,1.5,,001,2021-08-19_15h55.02,natb3,2021.2.3,MacIntel,62.5,60cfbfd8b5865f350977409d,611e07ecdcc96256ae8d5b80,611e70924513e4d05abf6e6f,
,,,,space,0.342,,0,38,38,184,1,T, , , , ,space,2000,2,,001,2021-08-19_15h55.02,natb3,2021.2.3,MacIntel,62.5,60cfbfd8b5865f350977409d,611e07ecdcc96256ae8d5b80,611e70924513e4d05abf6e6f,
,,,,space,0.33,,0,39,39,310,1,J, , , , ,space,2500,2.5,,001,2021-08-19_15h55.02,natb3,2021.2.3,MacIntel,62.5,60cfbfd8b5865f350977409d,611e07ecdcc96256ae8d5b80,611e70924513e4d05abf6e6f,
,,,,,,,0,40,40,273,1,X, , , , ,,2000,2,,001,2021-08-19_15h55.02,natb3,2021.2.3,MacIntel,62.5,60cfbfd8b5865f350977409d,611e07ecdcc96256ae8d5b80,611e70924513e4d05abf6e6f,
,,,,,,,0,41,41,39,1,X,6,2, , ,,1500,1.5,,001,2021-08-19_15h55.02,natb3,2021.2.3,MacIntel,62.5,60cfbfd8b5865f350977409d,611e07ecdcc96256ae8d5b80,611e70924513e4d05abf6e6f,
,,,,space,0.441,,0,42,42,143,1,M, , , , ,space,2500,2.5,,001,2021-08-19_15h55.02,natb3,2021.2.3,MacIntel,62.5,60cfbfd8b5865f350977409d,611e07ecdcc96256ae8d5b80,611e70924513e4d05abf6e6f,
,,,,space,0.366,,0,43,43,216,1,R, , , , ,space,1500,1.5,,001,2021-08-19_15h55.02,natb3,2021.2.3,MacIntel,62.5,60cfbfd8b5865f350977409d,611e07ecdcc96256ae8d5b80,611e70924513e4d05abf6e6f,
,,,,space,0.327,,0,44,44,81,1,S, , , , ,space,2000,2,,001,2021-08-19_15h55.02,natb3,2021.2.3,MacIntel,62.5,60cfbfd8b5865f350977409d,611e07ecdcc96256ae8d5b80,611e70924513e4d05abf6e6f,
,,,,,,,0,45,45,259,1,X,8, , ,3,,2500,2.5,,001,2021-08-19_15h55.02,natb3,2021.2.3,MacIntel,62.5,60cfbfd8b5865f350977409d,611e07ecdcc96256ae8d5b80,611e70924513e4d05abf6e6f,
,,,,,,,0,46,46,18,1,X, ,2,5,8,,2500,2.5,,001,2021-08-19_15h55.02,natb3,2021.2.3,MacIntel,62.5,60cfbfd8b5865f350977409d,611e07ecdcc96256ae8d5b80,611e70924513e4d05abf6e6f,
,,,,space,0.404,,0,47,47,240,1,F, , , , ,space,2500,2.5,,001,2021-08-19_15h55.02,natb3,2021.2.3,MacIntel,62.5,60cfbfd8b5865f350977409d,611e07ecdcc96256ae8d5b80,611e70924513e4d05abf6e6f,
,,,,space,0.328,,0,48,48,163,1,G, , , , ,space,2500,2.5,,001,2021-08-19_15h55.02,natb3,2021.2.3,MacIntel,62.5,60cfbfd8b5865f350977409d,611e07ecdcc96256ae8d5b80,611e70924513e4d05abf6e6f,
,,,,space,0.475,,0,49,49,106,1,T, , , , ,space,1500,1.5,,001,2021-08-19_15h55.02,natb3,2021.2.3,MacIntel,62.5,60cfbfd8b5865f350977409d,611e07ecdcc96256ae8d5b80,611e70924513e4d05abf6e6f,
,,,,space,0.359,,0,50,50,144,1,Q, , , , ,space,2500,2.5,,001,2021-08-19_15h55.02,natb3,2021.2.3,MacIntel,62.5,60cfbfd8b5865f350977409d,611e07ecdcc96256ae8d5b80,611e70924513e4d05abf6e6f,
,,,,space,0.393,,0,51,51,31,1,X, , , , ,,1500,1.5,,001,2021-08-19_15h55.02,natb3,2021.2.3,MacIntel,62.5,60cfbfd8b5865f350977409d,611e07ecdcc96256ae8d5b80,611e70924513e4d05abf6e6f,
,,,,space,0.392,,0,52,52,99,1,N, , , , ,space,2500,2.5,,001,2021-08-19_15h55.02,natb3,2021.2.3,MacIntel,62.5,60cfbfd8b5865f350977409d,611e07ecdcc96256ae8d5b80,611e70924513e4d05abf6e6f,
,,,,,,,0,53,53,166,1,X, , , , ,,2000,2,,001,2021-08-19_15h55.02,natb3,2021.2.3,MacIntel,62.5,60cfbfd8b5865f350977409d,611e07ecdcc96256ae8d5b80,611e70924513e4d05abf6e6f,
,,,,space,0.358,,0,54,54,128,1,D, , , , ,space,2500,2.5,,001,2021-08-19_15h55.02,natb3,2021.2.3,MacIntel,62.5,60cfbfd8b5865f350977409d,611e07ecdcc96256ae8d5b80,611e70924513e4d05abf6e6f,
,,,,space,0.349,,0,55,55,95,1,V, , , , ,space,1500,1.5,,001,2021-08-19_15h55.02,natb3,2021.2.3,MacIntel,62.5,60cfbfd8b5865f350977409d,611e07ecdcc96256ae8d5b80,611e70924513e4d05abf6e6f,
,,,,space,0.333,,0,56,56,48,1,A, , , , ,space,2500,2.5,,001,2021-08-19_15h55.02,natb3,2021.2.3,MacIntel,62.5,60cfbfd8b5865f350977409d,611e07ecdcc96256ae8d5b80,611e70924513e4d05abf6e6f,
,,,,space,0.69,,0,57,57,332,1,U, , , , ,space,2000,2,,001,2021-08-19_15h55.02,natb3,2021.2.3,MacIntel,62.5,60cfbfd8b5865f350977409d,611e07ecdcc96256ae8d5b80,611e70924513e4d05abf6e6f,
,,,,space,0.429,,0,58,58,59,1,Z, , , , ,space,2000,2,,001,2021-08-19_15h55.02,natb3,2021.2.3,MacIntel,62.5,60cfbfd8b5865f350977409d,611e07ecdcc96256ae8d5b80,611e70924513e4d05abf6e6f,
,,,,space,0.548,,0,59,59,183,1,R, , , , ,space,1500,1.5,,001,2021-08-19_15h55.02,natb3,2021.2.3,MacIntel,62.5,60cfbfd8b5865f350977409d,611e07ecdcc96256ae8d5b80,611e70924513e4d05abf6e6f,
,,,,space,0.373,,0,60,60,303,1,A, , , , ,space,2000,2,,001,2021-08-19_15h55.02,natb3,2021.2.3,MacIntel,62.5,60cfbfd8b5865f350977409d,611e07ecdcc96256ae8d5b80,611e70924513e4d05abf6e6f,
,,,,,,,0,61,61,66,1,X, ,4,7, ,,2000,2,,001,2021-08-19_15h55.02,natb3,2021.2.3,MacIntel,62.5,60cfbfd8b5865f350977409d,611e07ecdcc96256ae8d5b80,611e70924513e4d05abf6e6f,
,,,,space,0.478,,0,62,62,300,1,O, , , , ,space,2500,2.5,,001,2021-08-19_15h55.02,natb3,2021.2.3,MacIntel,62.5,60cfbfd8b5865f350977409d,611e07ecdcc96256ae8d5b80,611e70924513e4d05abf6e6f,
,,,,,,,0,63,63,102,1,X, ,6, , ,,1500,1.5,,001,2021-08-19_15h55.02,natb3,2021.2.3,MacIntel,62.5,60cfbfd8b5865f350977409d,611e07ecdcc96256ae8d5b80,611e70924513e4d05abf6e6f,
,,,,,,,0,64,64,302,1,X, , , , ,,2000,2,,001,2021-08-19_15h55.02,natb3,2021.2.3,MacIntel,62.5,60cfbfd8b5865f350977409d,611e07ecdcc96256ae8d5b80,611e70924513e4d05abf6e6f,
,,,,space,0.457,,0,65,65,296,1,Y, , , , ,space,2500,2.5,,001,2021-08-19_15h55.02,natb3,2021.2.3,MacIntel,62.5,60cfbfd8b5865f350977409d,611e07ecdcc96256ae8d5b80,611e70924513e4d05abf6e6f,
,,,,space,0.359,,0,66,66,156,1,P, , , , ,space,1500,1.5,,001,2021-08-19_15h55.02,natb3,2021.2.3,MacIntel,62.5,60cfbfd8b5865f350977409d,611e07ecdcc96256ae8d5b80,611e70924513e4d05abf6e6f,
,,,,space,0.416,,0,67,67,38,1,R, , , , ,space,2500,2.5,,001,2021-08-19_15h55.02,natb3,2021.2.3,MacIntel,62.5,60cfbfd8b5865f350977409d,611e07ecdcc96256ae8d5b80,611e70924513e4d05abf6e6f,
,,,,space,0.424,,0,68,68,67,1,Q, , , , ,space,2000,2,,001,2021-08-19_15h55.02,natb3,2021.2.3,MacIntel,62.5,60cfbfd8b5865f350977409d,611e07ecdcc96256ae8d5b80,611e70924513e4d05abf6e6f,
,,,,space,0.458,,0,69,69,286,1,N, , , , ,space,1500,1.5,,001,2021-08-19_15h55.02,natb3,2021.2.3,MacIntel,62.5,60cfbfd8b5865f350977409d,611e07ecdcc96256ae8d5b80,611e70924513e4d05abf6e6f,
,,,,space,0.415,,0,70,70,228,1,Y, , , , ,space,2000,2,,001,2021-08-19_15h55.02,natb3,2021.2.3,MacIntel,62.5,60cfbfd8b5865f350977409d,611e07ecdcc96256ae8d5b80,611e70924513e4d05abf6e6f,
,,,,space,0.484,,0,71,71,249,1,C, , , , ,space,2000,2,,001,2021-08-19_15h55.02,natb3,2021.2.3,MacIntel,62.5,60cfbfd8b5865f350977409d,611e07ecdcc96256ae8d5b80,611e70924513e4d05abf6e6f,
,,,,space,0.39,,0,72,72,178,1,Q, , , , ,space,1500,1.5,,001,2021-08-19_15h55.02,natb3,2021.2.3,MacIntel,62.5,60cfbfd8b5865f350977409d,611e07ecdcc96256ae8d5b80,611e70924513e4d05abf6e6f,
,,,,,,,0,73,73,305,1,X, , , , ,,1500,1.5,,001,2021-08-19_15h55.02,natb3,2021.2.3,MacIntel,62.5,60cfbfd8b5865f350977409d,611e07ecdcc96256ae8d5b80,611e70924513e4d05abf6e6f,
,,,,space,0.575,,0,74,74,152,1,U, , , , ,space,2000,2,,001,2021-08-19_15h55.02,natb3,2021.2.3,MacIntel,62.5,60cfbfd8b5865f350977409d,611e07ecdcc96256ae8d5b80,611e70924513e4d05abf6e6f,
,,,,space,0.348,,0,75,75,185,1,Y, , , , ,space,2500,2.5,,001,2021-08-19_15h55.02,natb3,2021.2.3,MacIntel,62.5,60cfbfd8b5865f350977409d,611e07ecdcc96256ae8d5b80,611e70924513e4d05abf6e6f,
,,,,,,,0,76,76,82,1,X,4,6,1,7,,2000,2,,001,2021-08-19_15h55.02,natb3,2021.2.3,MacIntel,62.5,60cfbfd8b5865f350977409d,611e07ecdcc96256ae8d5b80,611e70924513e4d05abf6e6f,
,,,,,,,0,77,77,322,1,X, , ,1,6,,2000,2,,001,2021-08-19_15h55.02,natb3,2021.2.3,MacIntel,62.5,60cfbfd8b5865f350977409d,611e07ecdcc96256ae8d5b80,611e70924513e4d05abf6e6f,
,,,,,,,0,78,78,313,1,X, , , , ,,2500,2.5,,001,2021-08-19_15h55.02,natb3,2021.2.3,MacIntel,62.5,60cfbfd8b5865f350977409d,611e07ecdcc96256ae8d5b80,611e70924513e4d05abf6e6f,
,,,,,,,0,79,79,116,1,X, , , , ,,2000,2,,001,2021-08-19_15h55.02,natb3,2021.2.3,MacIntel,62.5,60cfbfd8b5865f350977409d,611e07ecdcc96256ae8d5b80,611e70924513e4d05abf6e6f,
,,,,space,0.491,,0,80,80,201,1,K, , , , ,space,1500,1.5,,001,2021-08-19_15h55.02,natb3,2021.2.3,MacIntel,62.5,60cfbfd8b5865f350977409d,611e07ecdcc96256ae8d5b80,611e70924513e4d05abf6e6f,
,,,,space,0.384,,0,81,81,5,1,T, , , , ,space,2000,2,,001,2021-08-19_15h55.02,natb3,2021.2.3,MacIntel,62.5,60cfbfd8b5865f350977409d,611e07ecdcc96256ae8d5b80,611e70924513e4d05abf6e6f,
,,,,space,0.381,,0,82,82,307,1,F, , , , ,space,2500,2.5,,001,2021-08-19_15h55.02,natb3,2021.2.3,MacIntel,62.5,60cfbfd8b5865f350977409d,611e07ecdcc96256ae8d5b80,611e70924513e4d05abf6e6f,
,,,,space,0.431,,0,83,83,8,1,U, , , , ,space,1500,1.5,,001,2021-08-19_15h55.02,natb3,2021.2.3,MacIntel,62.5,60cfbfd8b5865f350977409d,611e07ecdcc96256ae8d5b80,611e70924513e4d05abf6e6f,
,,,,space,0.395,,0,84,84,34,1,Q, , , , ,space,2500,2.5,,001,2021-08-19_15h55.02,natb3,2021.2.3,MacIntel,62.5,60cfbfd8b5865f350977409d,611e07ecdcc96256ae8d5b80,611e70924513e4d05abf6e6f,
,,,,space,0.393,,0,85,85,235,1,A, , , , ,space,1500,1.5,,001,2021-08-19_15h55.02,natb3,2021.2.3,MacIntel,62.5,60cfbfd8b5865f350977409d,611e07ecdcc96256ae8d5b80,611e70924513e4d05abf6e6f,
,,,,,,,0,86,86,318,1,X, , , , ,,1500,1.5,,001,2021-08-19_15h55.02,natb3,2021.2.3,MacIntel,62.5,60cfbfd8b5865f350977409d,611e07ecdcc96256ae8d5b80,611e70924513e4d05abf6e6f,
,,,,,,,0,87,87,98,1,X, , , , ,,2500,2.5,,001,2021-08-19_15h55.02,natb3,2021.2.3,MacIntel,62.5,60cfbfd8b5865f350977409d,611e07ecdcc96256ae8d5b80,611e70924513e4d05abf6e6f,
,,,,space,0.38,,0,88,88,186,1,U, , , , ,space,2500,2.5,,001,2021-08-19_15h55.02,natb3,2021.2.3,MacIntel,62.5,60cfbfd8b5865f350977409d,611e07ecdcc96256ae8d5b80,611e70924513e4d05abf6e6f,
,,,,space,0.407,,0,89,89,241,1,G, , , , ,space,2500,2.5,,001,2021-08-19_15h55.02,natb3,2021.2.3,MacIntel,62.5,60cfbfd8b5865f350977409d,611e07ecdcc96256ae8d5b80,611e70924513e4d05abf6e6f,
,,,,,,,0,90,90,203,1,X, , , , ,,2500,2.5,,001,2021-08-19_15h55.02,natb3,2021.2.3,MacIntel,62.5,60cfbfd8b5865f350977409d,611e07ecdcc96256ae8d5b80,611e70924513e4d05abf6e6f,
,,,,space,0.407,,0,91,91,194,1,D, , , , ,space,2000,2,,001,2021-08-19_15h55.02,natb3,2021.2.3,MacIntel,62.5,60cfbfd8b5865f350977409d,611e07ecdcc96256ae8d5b80,611e70924513e4d05abf6e6f,
,,,,space,0.466,,0,92,92,331,1,Y, , , , ,space,2500,2.5,,001,2021-08-19_15h55.02,natb3,2021.2.3,MacIntel,62.5,60cfbfd8b5865f350977409d,611e07ecdcc96256ae8d5b80,611e70924513e4d05abf6e6f,
,,,,space,0.393,,0,93,93,238,1,D, , , , ,space,1500,1.5,,001,2021-08-19_15h55.02,natb3,2021.2.3,MacIntel,62.5,60cfbfd8b5865f350977409d,611e07ecdcc96256ae8d5b80,611e70924513e4d05abf6e6f,
,,,,space,0.407,,0,94,94,155,1,O, , , , ,space,1500,1.5,,001,2021-08-19_15h55.02,natb3,2021.2.3,MacIntel,62.5,60cfbfd8b5865f350977409d,611e07ecdcc96256ae8d5b80,611e70924513e4d05abf6e6f,
,,,,space,0.415,,0,95,95,70,1,E, , , , ,space,2500,2.5,,001,2021-08-19_15h55.02,natb3,2021.2.3,MacIntel,62.5,60cfbfd8b5865f350977409d,611e07ecdcc96256ae8d5b80,611e70924513e4d05abf6e6f,
,,,,space,0.392,,0,96,96,260,1,R, , , , ,space,2000,2,,001,2021-08-19_15h55.02,natb3,2021.2.3,MacIntel,62.5,60cfbfd8b5865f350977409d,611e07ecdcc96256ae8d5b80,611e70924513e4d05abf6e6f,
,,,,space,0.444,,0,97,97,29,1,B, , , , ,space,1500,1.5,,001,2021-08-19_15h55.02,natb3,2021.2.3,MacIntel,62.5,60cfbfd8b5865f350977409d,611e07ecdcc96256ae8d5b80,611e70924513e4d05abf6e6f,
,,,,space,0.388,,0,98,98,227,1,T, , , , ,space,1500,1.5,,001,2021-08-19_15h55.02,natb3,2021.2.3,MacIntel,62.5,60cfbfd8b5865f350977409d,611e07ecdcc96256ae8d5b80,611e70924513e4d05abf6e6f,
,,,,,,,0,99,99,291,1,X, , , , ,,2000,2,,001,2021-08-19_15h55.02,natb3,2021.2.3,MacIntel,62.5,60cfbfd8b5865f350977409d,611e07ecdcc96256ae8d5b80,611e70924513e4d05abf6e6f,
,,,,space,0.472,,0,100,100,115,1,R, , , , ,space,1500,1.5,,001,2021-08-19_15h55.02,natb3,2021.2.3,MacIntel,62.5,60cfbfd8b5865f350977409d,611e07ecdcc96256ae8d5b80,611e70924513e4d05abf6e6f,
,,,,space,0.574,,0,101,101,170,1,Z, , , , ,space,2000,2,,001,2021-08-19_15h55.02,natb3,2021.2.3,MacIntel,62.5,60cfbfd8b5865f350977409d,611e07ecdcc96256ae8d5b80,611e70924513e4d05abf6e6f,
,,,,space,0.375,,0,102,102,196,1,F, , , , ,space,1500,1.5,,001,2021-08-19_15h55.02,natb3,2021.2.3,MacIntel,62.5,60cfbfd8b5865f350977409d,611e07ecdcc96256ae8d5b80,611e70924513e4d05abf6e6f,
,,,,,,,0,103,103,243,1,X, , , , ,,2500,2.5,,001,2021-08-19_15h55.02,natb3,2021.2.3,MacIntel,62.5,60cfbfd8b5865f350977409d,611e07ecdcc96256ae8d5b80,611e70924513e4d05abf6e6f,
,,,,space,0.408,,0,104,104,124,1,P, , , , ,space,2000,2,,001,2021-08-19_15h55.02,natb3,2021.2.3,MacIntel,62.5,60cfbfd8b5865f350977409d,611e07ecdcc96256ae8d5b80,611e70924513e4d05abf6e6f,
,,,,space,0.35,,0,105,105,220,1,U, , , , ,space,2500,2.5,,001,2021-08-19_15h55.02,natb3,2021.2.3,MacIntel,62.5,60cfbfd8b5865f350977409d,611e07ecdcc96256ae8d5b80,611e70924513e4d05abf6e6f,
,,,,,,,0,106,106,129,1,X,2,3,5, ,,1500,1.5,,001,2021-08-19_15h55.02,natb3,2021.2.3,MacIntel,62.5,60cfbfd8b5865f350977409d,611e07ecdcc96256ae8d5b80,611e70924513e4d05abf6e6f,
,,,,,,,0,107,107,171,1,X, , , , ,,1500,1.5,,001,2021-08-19_15h55.02,natb3,2021.2.3,MacIntel,62.5,60cfbfd8b5865f350977409d,611e07ecdcc96256ae8d5b80,611e70924513e4d05abf6e6f,
,,,,space,0.558,,0,108,108,167,1,K, , , , ,space,1500,1.5,,001,2021-08-19_15h55.02,natb3,2021.2.3,MacIntel,62.5,60cfbfd8b5865f350977409d,611e07ecdcc96256ae8d5b80,611e70924513e4d05abf6e6f,
,,,,space,0.418,,0,109,109,104,1,E, , , , ,space,2000,2,,001,2021-08-19_15h55.02,natb3,2021.2.3,MacIntel,62.5,60cfbfd8b5865f350977409d,611e07ecdcc96256ae8d5b80,611e70924513e4d05abf6e6f,
,,,,space,0.333,,0,110,110,72,1,T, , , , ,space,1500,1.5,,001,2021-08-19_15h55.02,natb3,2021.2.3,MacIntel,62.5,60cfbfd8b5865f350977409d,611e07ecdcc96256ae8d5b80,611e70924513e4d05abf6e6f,
,,,,space,0.433,,0,111,111,110,1,I, , , , ,space,1500,1.5,,001,2021-08-19_15h55.02,natb3,2021.2.3,MacIntel,62.5,60cfbfd8b5865f350977409d,611e07ecdcc96256ae8d5b80,611e70924513e4d05abf6e6f,
,,,,space,0.443,,0,112,112,257,1,W, , , , ,space,2000,2,,001,2021-08-19_15h55.02,natb3,2021.2.3,MacIntel,62.5,60cfbfd8b5865f350977409d,611e07ecdcc96256ae8d5b80,611e70924513e4d05abf6e6f,
,,,,space,0.343,,0,113,113,198,1,H, , , , ,space,2500,2.5,,001,2021-08-19_15h55.02,natb3,2021.2.3,MacIntel,62.5,60cfbfd8b5865f350977409d,611e07ecdcc96256ae8d5b80,611e70924513e4d05abf6e6f,
,,,,space,0.482,,0,114,114,169,1,L, , , , ,space,2500,2.5,,001,2021-08-19_15h55.02,natb3,2021.2.3,MacIntel,62.5,60cfbfd8b5865f350977409d,611e07ecdcc96256ae8d5b80,611e70924513e4d05abf6e6f,
,,,,space,0.391,,0,115,115,159,1,S, , , , ,space,2500,2.5,,001,2021-08-19_15h55.02,natb3,2021.2.3,MacIntel,62.5,60cfbfd8b5865f350977409d,611e07ecdcc96256ae8d5b80,611e70924513e4d05abf6e6f,
,,,,space,0.435,,0,116,116,161,1,F, , , , ,space,1500,1.5,,001,2021-08-19_15h55.02,natb3,2021.2.3,MacIntel,62.5,60cfbfd8b5865f350977409d,611e07ecdcc96256ae8d5b80,611e70924513e4d05abf6e6f,
,,,,space,0.432,,0,117,117,114,1,E, , , , ,space,2000,2,,001,2021-08-19_15h55.02,natb3,2021.2.3,MacIntel,62.5,60cfbfd8b5865f350977409d,611e07ecdcc96256ae8d5b80,611e70924513e4d05abf6e6f,
,,,,space,0.405,,0,118,118,267,1,P, , , , ,space,2000,2,,001,2021-08-19_15h55.02,natb3,2021.2.3,MacIntel,62.5,60cfbfd8b5865f350977409d,611e07ecdcc96256ae8d5b80,611e70924513e4d05abf6e6f,
,,,,space,0.549,,0,119,119,68,1,W, , , , ,space,2500,2.5,,001,2021-08-19_15h55.02,natb3,2021.2.3,MacIntel,62.5,60cfbfd8b5865f350977409d,611e07ecdcc96256ae8d5b80,611e70924513e4d05abf6e6f,
,,,,,,,0,120,120,145,1,X, , , , ,,2000,2,,001,2021-08-19_15h55.02,natb3,2021.2.3,MacIntel,62.5,60cfbfd8b5865f350977409d,611e07ecdcc96256ae8d5b80,611e70924513e4d05abf6e6f,
,,,,space,0.401,,0,121,121,280,1,L, , , , ,space,1500,1.5,,001,2021-08-19_15h55.02,natb3,2021.2.3,MacIntel,62.5,60cfbfd8b5865f350977409d,611e07ecdcc96256ae8d5b80,611e70924513e4d05abf6e6f,
,,,,space,0.501,,0,122,122,137,1,C, , , , ,space,2500,2.5,,001,2021-08-19_15h55.02,natb3,2021.2.3,MacIntel,62.5,60cfbfd8b5865f350977409d,611e07ecdcc96256ae8d5b80,611e70924513e4d05abf6e6f,
,,,,,,,0,123,123,213,1,X, , , , ,,2500,2.5,,001,2021-08-19_15h55.02,natb3,2021.2.3,MacIntel,62.5,60cfbfd8b5865f350977409d,611e07ecdcc96256ae8d5b80,611e70924513e4d05abf6e6f,
,,,,space,0.539,,0,124,124,101,1,Q, , , , ,space,2500,2.5,,001,2021-08-19_15h55.02,natb3,2021.2.3,MacIntel,62.5,60cfbfd8b5865f350977409d,611e07ecdcc96256ae8d5b80,611e70924513e4d05abf6e6f,
,,,,space,0.81,,0,125,125,121,1,I, , , , ,space,2000,2,,001,2021-08-19_15h55.02,natb3,2021.2.3,MacIntel,62.5,60cfbfd8b5865f350977409d,611e07ecdcc96256ae8d5b80,611e70924513e4d05abf6e6f,
,,,,space,0.424,,0,126,126,150,1,T, , , , ,space,2500,2.5,,001,2021-08-19_15h55.02,natb3,2021.2.3,MacIntel,62.5,60cfbfd8b5865f350977409d,611e07ecdcc96256ae8d5b80,611e70924513e4d05abf6e6f,
,,,,space,0.398,,0,127,127,242,1,H, , , , ,space,2500,2.5,,001,2021-08-19_15h55.02,natb3,2021.2.3,MacIntel,62.5,60cfbfd8b5865f350977409d,611e07ecdcc96256ae8d5b80,611e70924513e4d05abf6e6f,
,,,,space,0.308,,0,128,128,41,1,Y, , , , ,space,2500,2.5,,001,2021-08-19_15h55.02,natb3,2021.2.3,MacIntel,62.5,60cfbfd8b5865f350977409d,611e07ecdcc96256ae8d5b80,611e70924513e4d05abf6e6f,
,,,,space,0.381,,0,129,129,0,1,Q, , , , ,space,1500,1.5,,001,2021-08-19_15h55.02,natb3,2021.2.3,MacIntel,62.5,60cfbfd8b5865f350977409d,611e07ecdcc96256ae8d5b80,611e70924513e4d05abf6e6f,
,,,,space,0.315,,0,130,130,292,1,E, , , , ,space,2000,2,,001,2021-08-19_15h55.02,natb3,2021.2.3,MacIntel,62.5,60cfbfd8b5865f350977409d,611e07ecdcc96256ae8d5b80,611e70924513e4d05abf6e6f,
,,,,space,0.39,,0,131,131,188,1,I, , , , ,space,2500,2.5,,001,2021-08-19_15h55.02,natb3,2021.2.3,MacIntel,62.5,60cfbfd8b5865f350977409d,611e07ecdcc96256ae8d5b80,611e70924513e4d05abf6e6f,
,,,,,,,0,132,132,179,1,X, ,9, ,2,,1500,1.5,,001,2021-08-19_15h55.02,natb3,2021.2.3,MacIntel,62.5,60cfbfd8b5865f350977409d,611e07ecdcc96256ae8d5b80,611e70924513e4d05abf6e6f,
,,,,space,0.407,,0,133,133,176,1,N, , , , ,space,1500,1.5,,001,2021-08-19_15h55.02,natb3,2021.2.3,MacIntel,62.5,60cfbfd8b5865f350977409d,611e07ecdcc96256ae8d5b80,611e70924513e4d05abf6e6f,
,,,,,,,0,134,134,60,1,X,7,3,5, ,,1500,1.5,,001,2021-08-19_15h55.02,natb3,2021.2.3,MacIntel,62.5,60cfbfd8b5865f350977409d,611e07ecdcc96256ae8d5b80,611e70924513e4d05abf6e6f,
,,,,space,0.437,,0,135,135,293,1,R, , , , ,space,2500,2.5,,001,2021-08-19_15h55.02,natb3,2021.2.3,MacIntel,62.5,60cfbfd8b5865f350977409d,611e07ecdcc96256ae8d5b80,611e70924513e4d05abf6e6f,
,,,,,,,0,136,136,315,1,X, , , , ,,2500,2.5,,001,2021-08-19_15h55.02,natb3,2021.2.3,MacIntel,62.5,60cfbfd8b5865f350977409d,611e07ecdcc96256ae8d5b80,611e70924513e4d05abf6e6f,
,,,,space,0.448,,0,137,137,234,1,P, , , , ,space,2000,2,,001,2021-08-19_15h55.02,natb3,2021.2.3,MacIntel,62.5,60cfbfd8b5865f350977409d,611e07ecdcc96256ae8d5b80,611e70924513e4d05abf6e6f,
,,,,space,0.36,,0,138,138,90,1,K, , , , ,space,2000,2,,001,2021-08-19_15h55.02,natb3,2021.2.3,MacIntel,62.5,60cfbfd8b5865f350977409d,611e07ecdcc96256ae8d5b80,611e70924513e4d05abf6e6f,
,,,,space,0.307,,0,139,139,157,1,A, , , , ,space,2500,2.5,,001,2021-08-19_15h55.02,natb3,2021.2.3,MacIntel,62.5,60cfbfd8b5865f350977409d,611e07ecdcc96256ae8d5b80,611e70924513e4d05abf6e6f,
,,,,space,0.507,,0,140,140,16,1,D, , , , ,space,1500,1.5,,001,2021-08-19_15h55.02,natb3,2021.2.3,MacIntel,62.5,60cfbfd8b5865f350977409d,611e07ecdcc96256ae8d5b80,611e70924513e4d05abf6e6f,
,,,,space,0.512,,0,141,141,3,1,R, , , , ,space,2000,2,,001,2021-08-19_15h55.02,natb3,2021.2.3,MacIntel,62.5,60cfbfd8b5865f350977409d,611e07ecdcc96256ae8d5b80,611e70924513e4d05abf6e6f,
,,,,space,0.783,,0,142,142,328,1,R, , , , ,space,1500,1.5,,001,2021-08-19_15h55.02,natb3,2021.2.3,MacIntel,62.5,60cfbfd8b5865f350977409d,611e07ecdcc96256ae8d5b80,611e70924513e4d05abf6e6f,
,,,,space,0.396,,0,143,143,25,1,Z, , , , ,space,2500,2.5,,001,2021-08-19_15h55.02,natb3,2021.2.3,MacIntel,62.5,60cfbfd8b5865f350977409d,611e07ecdcc96256ae8d5b80,611e70924513e4d05abf6e6f,
,,,,,,,0,144,144,200,1,X,7, ,5,3,,1500,1.5,,001,2021-08-19_15h55.02,natb3,2021.2.3,MacIntel,62.5,60cfbfd8b5865f350977409d,611e07ecdcc96256ae8d5b80,611e70924513e4d05abf6e6f,
,,,,space,0.512,,0,145,145,13,1,A, , , , ,space,2000,2,,001,2021-08-19_15h55.02,natb3,2021.2.3,MacIntel,62.5,60cfbfd8b5865f350977409d,611e07ecdcc96256ae8d5b80,611e70924513e4d05abf6e6f,
,,,,space,0.498,,0,146,146,217,1,T, , , , ,space,2500,2.5,,001,2021-08-19_15h55.02,natb3,2021.2.3,MacIntel,62.5,60cfbfd8b5865f350977409d,611e07ecdcc96256ae8d5b80,611e70924513e4d05abf6e6f,
,,,,space,0.562,,0,147,147,91,1,L, , , , ,space,2000,2,,001,2021-08-19_15h55.02,natb3,2021.2.3,MacIntel,62.5,60cfbfd8b5865f350977409d,611e07ecdcc96256ae8d5b80,611e70924513e4d05abf6e6f,
,,,,,,,0,148,148,195,1,X, , , , ,,1500,1.5,,001,2021-08-19_15h55.02,natb3,2021.2.3,MacIntel,62.5,60cfbfd8b5865f350977409d,611e07ecdcc96256ae8d5b80,611e70924513e4d05abf6e6f,
,,,,space,0.481,,0,149,149,288,1,M, , , , ,space,1500,1.5,,001,2021-08-19_15h55.02,natb3,2021.2.3,MacIntel,62.5,60cfbfd8b5865f350977409d,611e07ecdcc96256ae8d5b80,611e70924513e4d05abf6e6f,
,,,,space,0.342,,0,150,150,306,1,D, , , , ,space,2000,2,,001,2021-08-19_15h55.02,natb3,2021.2.3,MacIntel,62.5,60cfbfd8b5865f350977409d,611e07ecdcc96256ae8d5b80,611e70924513e4d05abf6e6f,
,,,,,,,0,151,151,78,1,X, , , , ,,2000,2,,001,2021-08-19_15h55.02,natb3,2021.2.3,MacIntel,62.5,60cfbfd8b5865f350977409d,611e07ecdcc96256ae8d5b80,611e70924513e4d05abf6e6f,
,,,,space,0.39,,0,152,152,40,1,T, , , , ,space,1500,1.5,,001,2021-08-19_15h55.02,natb3,2021.2.3,MacIntel,62.5,60cfbfd8b5865f350977409d,611e07ecdcc96256ae8d5b80,611e70924513e4d05abf6e6f,
,,,,space,0.507,,0,153,153,87,1,H, , , , ,space,1500,1.5,,001,2021-08-19_15h55.02,natb3,2021.2.3,MacIntel,62.5,60cfbfd8b5865f350977409d,611e07ecdcc96256ae8d5b80,611e70924513e4d05abf6e6f,
,,,,,,,0,154,154,148,1,X, , , , ,,2000,2,,001,2021-08-19_15h55.02,natb3,2021.2.3,MacIntel,62.5,60cfbfd8b5865f350977409d,611e07ecdcc96256ae8d5b80,611e70924513e4d05abf6e6f,
,,,,space,0.398,,0,155,155,327,1,E, , , , ,space,1500,1.5,,001,2021-08-19_15h55.02,natb3,2021.2.3,MacIntel,62.5,60cfbfd8b5865f350977409d,611e07ecdcc96256ae8d5b80,611e70924513e4d05abf6e6f,
,,,,,,,0,156,156,191,1,X,1, ,3,4,,2500,2.5,,001,2021-08-19_15h55.02,natb3,2021.2.3,MacIntel,62.5,60cfbfd8b5865f350977409d,611e07ecdcc96256ae8d5b80,611e70924513e4d05abf6e6f,
,,,,space,0.392,,0,157,157,10,1,O, , , , ,space,2000,2,,001,2021-08-19_15h55.02,natb3,2021.2.3,MacIntel,62.5,60cfbfd8b5865f350977409d,611e07ecdcc96256ae8d5b80,611e70924513e4d05abf6e6f,
,,,,,,,0,158,158,46,1,X, , , , ,,2000,2,,001,2021-08-19_15h55.02,natb3,2021.2.3,MacIntel,62.5,60cfbfd8b5865f350977409d,611e07ecdcc96256ae8d5b80,611e70924513e4d05abf6e6f,
,,,,,,,0,159,159,118,1,X, , , , ,,2000,2,,001,2021-08-19_15h55.02,natb3,2021.2.3,MacIntel,62.5,60cfbfd8b5865f350977409d,611e07ecdcc96256ae8d5b80,611e70924513e4d05abf6e6f,
,,,,space,0.445,,0,160,160,314,1,L, , , , ,space,1500,1.5,,001,2021-08-19_15h55.02,natb3,2021.2.3,MacIntel,62.5,60cfbfd8b5865f350977409d,611e07ecdcc96256ae8d5b80,611e70924513e4d05abf6e6f,
,,,,space,0.404,,0,161,161,246,1,L, , , , ,space,2500,2.5,,001,2021-08-19_15h55.02,natb3,2021.2.3,MacIntel,62.5,60cfbfd8b5865f350977409d,611e07ecdcc96256ae8d5b80,611e70924513e4d05abf6e6f,
,,,,space,0.524,,0,162,162,316,1,Z, , , , ,space,1500,1.5,,001,2021-08-19_15h55.02,natb3,2021.2.3,MacIntel,62.5,60cfbfd8b5865f350977409d,611e07ecdcc96256ae8d5b80,611e70924513e4d05abf6e6f,
,,,,space,0.329,,0,163,163,333,1,I, , , , ,space,1500,1.5,,001,2021-08-19_15h55.02,natb3,2021.2.3,MacIntel,62.5,60cfbfd8b5865f350977409d,611e07ecdcc96256ae8d5b80,611e70924513e4d05abf6e6f,
,,,,space,0.44,,0,164,164,142,1,N, , , , ,space,2500,2.5,,001,2021-08-19_15h55.02,natb3,2021.2.3,MacIntel,62.5,60cfbfd8b5865f350977409d,611e07ecdcc96256ae8d5b80,611e70924513e4d05abf6e6f,
,,,,space,0.397,,0,165,165,147,1,E, , , , ,space,2000,2,,001,2021-08-19_15h55.02,natb3,2021.2.3,MacIntel,62.5,60cfbfd8b5865f350977409d,611e07ecdcc96256ae8d5b80,611e70924513e4d05abf6e6f,
,,,,space,0.5,,0,166,166,224,1,W, , , , ,space,1500,1.5,,001,2021-08-19_15h55.02,natb3,2021.2.3,MacIntel,62.5,60cfbfd8b5865f350977409d,611e07ecdcc96256ae8d5b80,611e70924513e4d05abf6e6f,
,,,,space,0.539,space,0,167,167,14,1,S, , , , ,space,2500,2.5,,001,2021-08-19_15h55.02,natb3,2021.2.3,MacIntel,62.5,60cfbfd8b5865f350977409d,611e07ecdcc96256ae8d5b80,611e70924513e4d05abf6e6f,6.387
,,,,,,,0,168,168,233,1,X, ,2, ,5,,1500,1.5,,001,2021-08-19_15h55.02,natb3,2021.2.3,MacIntel,62.5,60cfbfd8b5865f350977409d,611e07ecdcc96256ae8d5b80,611e70924513e4d05abf6e6f,
,,,,space,0.513,,0,169,169,269,1,A, , , , ,space,2500,2.5,,001,2021-08-19_15h55.02,natb3,2021.2.3,MacIntel,62.5,60cfbfd8b5865f350977409d,611e07ecdcc96256ae8d5b80,611e70924513e4d05abf6e6f,
,,,,,,,0,170,170,187,1,X, ,3,7,4,,1500,1.5,,001,2021-08-19_15h55.02,natb3,2021.2.3,MacIntel,62.5,60cfbfd8b5865f350977409d,611e07ecdcc96256ae8d5b80,611e70924513e4d05abf6e6f,
,,,,space,0.34,,0,171,171,69,1,X, , , , ,,1500,1.5,,001,2021-08-19_15h55.02,natb3,2021.2.3,MacIntel,62.5,60cfbfd8b5865f350977409d,611e07ecdcc96256ae8d5b80,611e70924513e4d05abf6e6f,
,,,,space,0.358,,0,172,172,71,1,R, , , , ,space,2500,2.5,,001,2021-08-19_15h55.02,natb3,2021.2.3,MacIntel,62.5,60cfbfd8b5865f350977409d,611e07ecdcc96256ae8d5b80,611e70924513e4d05abf6e6f,
,,,,space,0.443,,0,173,173,120,1,U, , , , ,space,1500,1.5,,001,2021-08-19_15h55.02,natb3,2021.2.3,MacIntel,62.5,60cfbfd8b5865f350977409d,611e07ecdcc96256ae8d5b80,611e70924513e4d05abf6e6f,
,,,,space,0.492,,0,174,174,214,1,W, , , , ,space,2000,2,,001,2021-08-19_15h55.02,natb3,2021.2.3,MacIntel,62.5,60cfbfd8b5865f350977409d,611e07ecdcc96256ae8d5b80,611e70924513e4d05abf6e6f,
,,,,space,0.411,,0,175,175,28,1,V, , , , ,space,1500,1.5,,001,2021-08-19_15h55.02,natb3,2021.2.3,MacIntel,62.5,60cfbfd8b5865f350977409d,611e07ecdcc96256ae8d5b80,611e70924513e4d05abf6e6f,
,,,,,,,0,176,176,207,1,X,9, ,2, ,,2500,2.5,,001,2021-08-19_15h55.02,natb3,2021.2.3,MacIntel,62.5,60cfbfd8b5865f350977409d,611e07ecdcc96256ae8d5b80,611e70924513e4d05abf6e6f,
,,,,space,0.422,,0,177,177,312,1,K, , , , ,space,2000,2,,001,2021-08-19_15h55.02,natb3,2021.2.3,MacIntel,62.5,60cfbfd8b5865f350977409d,611e07ecdcc96256ae8d5b80,611e70924513e4d05abf6e6f,
,,,,,,,0,178,178,125,1,X, , , , ,,2000,2,,001,2021-08-19_15h55.02,natb3,2021.2.3,MacIntel,62.5,60cfbfd8b5865f350977409d,611e07ecdcc96256ae8d5b80,611e70924513e4d05abf6e6f,
,,,,space,0.409,,0,179,179,223,1,Q, , , , ,space,2000,2,,001,2021-08-19_15h55.02,natb3,2021.2.3,MacIntel,62.5,60cfbfd8b5865f350977409d,611e07ecdcc96256ae8d5b80,611e70924513e4d05abf6e6f,
,,,,space,0.393,,0,180,180,108,1,Y, , , , ,space,2500,2.5,,001,2021-08-19_15h55.02,natb3,2021.2.3,MacIntel,62.5,60cfbfd8b5865f350977409d,611e07ecdcc96256ae8d5b80,611e70924513e4d05abf6e6f,
,,,,space,0.341,,0,181,181,103,1,W, , , , ,space,2000,2,,001,2021-08-19_15h55.02,natb3,2021.2.3,MacIntel,62.5,60cfbfd8b5865f350977409d,611e07ecdcc96256ae8d5b80,611e70924513e4d05abf6e6f,
,,,,space,0.487,,0,182,182,266,1,O, , , , ,space,1500,1.5,,001,2021-08-19_15h55.02,natb3,2021.2.3,MacIntel,62.5,60cfbfd8b5865f350977409d,611e07ecdcc96256ae8d5b80,611e70924513e4d05abf6e6f,
,,,,,,,0,183,183,12,1,X, , , , ,,1500,1.5,,001,2021-08-19_15h55.02,natb3,2021.2.3,MacIntel,62.5,60cfbfd8b5865f350977409d,611e07ecdcc96256ae8d5b80,611e70924513e4d05abf6e6f,
,,,,space,0.39,,0,184,184,63,1,B, , , , ,space,2000,2,,001,2021-08-19_15h55.02,natb3,2021.2.3,MacIntel,62.5,60cfbfd8b5865f350977409d,611e07ecdcc96256ae8d5b80,611e70924513e4d05abf6e6f,
,,,,space,0.334,,0,185,185,275,1,G, , , , ,space,1500,1.5,,001,2021-08-19_15h55.02,natb3,2021.2.3,MacIntel,62.5,60cfbfd8b5865f350977409d,611e07ecdcc96256ae8d5b80,611e70924513e4d05abf6e6f,
,,,,space,0.331,,0,186,186,140,1,B, , , , ,space,2500,2.5,,001,2021-08-19_15h55.02,natb3,2021.2.3,MacIntel,62.5,60cfbfd8b5865f350977409d,611e07ecdcc96256ae8d5b80,611e70924513e4d05abf6e6f,
,,,,space,0.383,,0,187,187,76,1,I, , , , ,space,2000,2,,001,2021-08-19_15h55.02,natb3,2021.2.3,MacIntel,62.5,60cfbfd8b5865f350977409d,611e07ecdcc96256ae8d5b80,611e70924513e4d05abf6e6f,
,,,,space,0.468,,0,188,188,244,1,J, , , , ,space,1500,1.5,,001,2021-08-19_15h55.02,natb3,2021.2.3,MacIntel,62.5,60cfbfd8b5865f350977409d,611e07ecdcc96256ae8d5b80,611e70924513e4d05abf6e6f,
,,,,space,0.696,,0,189,189,232,1,O, , , , ,space,2500,2.5,,001,2021-08-19_15h55.02,natb3,2021.2.3,MacIntel,62.5,60cfbfd8b5865f350977409d,611e07ecdcc96256ae8d5b80,611e70924513e4d05abf6e6f,
,,,,,,,0,190,190,255,1,X, , , , ,,1500,1.5,,001,2021-08-19_15h55.02,natb3,2021.2.3,MacIntel,62.5,60cfbfd8b5865f350977409d,611e07ecdcc96256ae8d5b80,611e70924513e4d05abf6e6f,
,,,,space,0.642,,0,191,191,276,1,H, , , , ,space,2000,2,,001,2021-08-19_15h55.02,natb3,2021.2.3,MacIntel,62.5,60cfbfd8b5865f350977409d,611e07ecdcc96256ae8d5b80,611e70924513e4d05abf6e6f,
,,,,space,0.382,,0,192,192,177,1,M, , , , ,space,2500,2.5,,001,2021-08-19_15h55.02,natb3,2021.2.3,MacIntel,62.5,60cfbfd8b5865f350977409d,611e07ecdcc96256ae8d5b80,611e70924513e4d05abf6e6f,
,,,,space,0.393,,0,193,193,319,1,V, , , , ,space,2000,2,,001,2021-08-19_15h55.02,natb3,2021.2.3,MacIntel,62.5,60cfbfd8b5865f350977409d,611e07ecdcc96256ae8d5b80,611e70924513e4d05abf6e6f,
,,,,,,,0,194,194,299,1,X, , , , ,,2500,2.5,,001,2021-08-19_15h55.02,natb3,2021.2.3,MacIntel,62.5,60cfbfd8b5865f350977409d,611e07ecdcc96256ae8d5b80,611e70924513e4d05abf6e6f,
,,,,,,,0,195,195,218,1,X,1,3, ,8,,1500,1.5,,001,2021-08-19_15h55.02,natb3,2021.2.3,MacIntel,62.5,60cfbfd8b5865f350977409d,611e07ecdcc96256ae8d5b80,611e70924513e4d05abf6e6f,
,,,,,,,0,196,196,93,1,X,5, ,7, ,,2500,2.5,,001,2021-08-19_15h55.02,natb3,2021.2.3,MacIntel,62.5,60cfbfd8b5865f350977409d,611e07ecdcc96256ae8d5b80,611e70924513e4d05abf6e6f,
,,,,space,0.423,,0,197,197,112,1,Q, , , , ,space,2500,2.5,,001,2021-08-19_15h55.02,natb3,2021.2.3,MacIntel,62.5,60cfbfd8b5865f350977409d,611e07ecdcc96256ae8d5b80,611e70924513e4d05abf6e6f,
,,,,space,0.877,,0,198,198,36,1,W, , , , ,space,2000,2,,001,2021-08-19_15h55.02,natb3,2021.2.3,MacIntel,62.5,60cfbfd8b5865f350977409d,611e07ecdcc96256ae8d5b80,611e70924513e4d05abf6e6f,
,,,,space,0.384,,0,199,199,262,1,Y, , , , ,space,2500,2.5,,001,2021-08-19_15h55.02,natb3,2021.2.3,MacIntel,62.5,60cfbfd8b5865f350977409d,611e07ecdcc96256ae8d5b80,611e70924513e4d05abf6e6f,
,,,,space,0.473,,0,200,200,210,1,M, , , , ,space,1500,1.5,,001,2021-08-19_15h55.02,natb3,2021.2.3,MacIntel,62.5,60cfbfd8b5865f350977409d,611e07ecdcc96256ae8d5b80,611e70924513e4d05abf6e6f,
,,,,space,0.365,,0,201,201,202,1,L, , , , ,space,2500,2.5,,001,2021-08-19_15h55.02,natb3,2021.2.3,MacIntel,62.5,60cfbfd8b5865f350977409d,611e07ecdcc96256ae8d5b80,611e70924513e4d05abf6e6f,
,,,,space,0.315,,0,202,202,111,1,O, , , , ,space,2000,2,,001,2021-08-19_15h55.02,natb3,2021.2.3,MacIntel,62.5,60cfbfd8b5865f350977409d,611e07ecdcc96256ae8d5b80,611e70924513e4d05abf6e6f,
,,,,space,0.345,,0,203,203,123,1,O, , , , ,space,1500,1.5,,001,2021-08-19_15h55.02,natb3,2021.2.3,MacIntel,62.5,60cfbfd8b5865f350977409d,611e07ecdcc96256ae8d5b80,611e70924513e4d05abf6e6f,
,,,,space,0.407,,0,204,204,204,1,Z, , , , ,space,2000,2,,001,2021-08-19_15h55.02,natb3,2021.2.3,MacIntel,62.5,60cfbfd8b5865f350977409d,611e07ecdcc96256ae8d5b80,611e70924513e4d05abf6e6f,
,,,,space,0.368,,0,205,205,265,1,I, , , , ,space,2000,2,,001,2021-08-19_15h55.02,natb3,2021.2.3,MacIntel,62.5,60cfbfd8b5865f350977409d,611e07ecdcc96256ae8d5b80,611e70924513e4d05abf6e6f,
,,,,space,0.389,,0,206,206,330,1,T, , , , ,space,2500,2.5,,001,2021-08-19_15h55.02,natb3,2021.2.3,MacIntel,62.5,60cfbfd8b5865f350977409d,611e07ecdcc96256ae8d5b80,611e70924513e4d05abf6e6f,
,,,,,,,0,207,207,325,1,X, , , , ,,2500,2.5,,001,2021-08-19_15h55.02,natb3,2021.2.3,MacIntel,62.5,60cfbfd8b5865f350977409d,611e07ecdcc96256ae8d5b80,611e70924513e4d05abf6e6f,
,,,,space,0.374,,0,208,208,278,1,J, , , , ,space,2000,2,,001,2021-08-19_15h55.02,natb3,2021.2.3,MacIntel,62.5,60cfbfd8b5865f350977409d,611e07ecdcc96256ae8d5b80,611e70924513e4d05abf6e6f,
,,,,space,0.317,,0,209,209,6,1,Y, , , , ,space,2500,2.5,,001,2021-08-19_15h55.02,natb3,2021.2.3,MacIntel,62.5,60cfbfd8b5865f350977409d,611e07ecdcc96256ae8d5b80,611e70924513e4d05abf6e6f,
,,,,space,0.3,,0,210,210,58,1,L, , , , ,space,2000,2,,001,2021-08-19_15h55.02,natb3,2021.2.3,MacIntel,62.5,60cfbfd8b5865f350977409d,611e07ecdcc96256ae8d5b80,611e70924513e4d05abf6e6f,
,,,,space,0.386,,0,211,211,231,1,I, , , , ,space,2500,2.5,,001,2021-08-19_15h55.02,natb3,2021.2.3,MacIntel,62.5,60cfbfd8b5865f350977409d,611e07ecdcc96256ae8d5b80,611e70924513e4d05abf6e6f,
,,,,,,,0,212,212,84,1,X, , , , ,,2000,2,,001,2021-08-19_15h55.02,natb3,2021.2.3,MacIntel,62.5,60cfbfd8b5865f350977409d,611e07ecdcc96256ae8d5b80,611e70924513e4d05abf6e6f,
,,,,space,0.45,,0,213,213,64,1,N, , , , ,space,2000,2,,001,2021-08-19_15h55.02,natb3,2021.2.3,MacIntel,62.5,60cfbfd8b5865f350977409d,611e07ecdcc96256ae8d5b80,611e70924513e4d05abf6e6f,
,,,,space,0.535,,0,214,214,209,1,N, , , , ,space,2000,2,,001,2021-08-19_15h55.02,natb3,2021.2.3,MacIntel,62.5,60cfbfd8b5865f350977409d,611e07ecdcc96256ae8d5b80,611e70924513e4d05abf6e6f,
,,,,space,0.359,,0,215,215,309,1,H, , , , ,space,2500,2.5,,001,2021-08-19_15h55.02,natb3,2021.2.3,MacIntel,62.5,60cfbfd8b5865f350977409d,611e07ecdcc96256ae8d5b80,611e70924513e4d05abf6e6f,
,,,,space,0.48,,0,216,216,130,1,F, , , , ,space,2000,2,,001,2021-08-19_15h55.02,natb3,2021.2.3,MacIntel,62.5,60cfbfd8b5865f350977409d,611e07ecdcc96256ae8d5b80,611e70924513e4d05abf6e6f,
,,,,space,0.408,,0,217,217,324,1,Q, , , , ,space,2000,2,,001,2021-08-19_15h55.02,natb3,2021.2.3,MacIntel,62.5,60cfbfd8b5865f350977409d,611e07ecdcc96256ae8d5b80,611e70924513e4d05abf6e6f,
,,,,,,,0,218,218,141,1,X,1, ,4,6,,1500,1.5,,001,2021-08-19_15h55.02,natb3,2021.2.3,MacIntel,62.5,60cfbfd8b5865f350977409d,611e07ecdcc96256ae8d5b80,611e70924513e4d05abf6e6f,
,,,,space,0.539,,0,219,219,126,1,A, , , , ,space,2500,2.5,,001,2021-08-19_15h55.02,natb3,2021.2.3,MacIntel,62.5,60cfbfd8b5865f350977409d,611e07ecdcc96256ae8d5b80,611e70924513e4d05abf6e6f,
,,,,,,,0,220,220,107,1,X,9,3, ,2,,2000,2,,001,2021-08-19_15h55.02,natb3,2021.2.3,MacIntel,62.5,60cfbfd8b5865f350977409d,611e07ecdcc96256ae8d5b80,611e70924513e4d05abf6e6f,
,,,,,,,0,221,221,329,1,X,3,4, ,2,,2500,2.5,,001,2021-08-19_15h55.02,natb3,2021.2.3,MacIntel,62.5,60cfbfd8b5865f350977409d,611e07ecdcc96256ae8d5b80,611e70924513e4d05abf6e6f,
,,,,space,0.479,,0,222,222,80,1,A, , , , ,space,2000,2,,001,2021-08-19_15h55.02,natb3,2021.2.3,MacIntel,62.5,60cfbfd8b5865f350977409d,611e07ecdcc96256ae8d5b80,611e70924513e4d05abf6e6f,
,,,,space,0.397,,0,223,223,285,1,B, , , , ,space,1500,1.5,,001,2021-08-19_15h55.02,natb3,2021.2.3,MacIntel,62.5,60cfbfd8b5865f350977409d,611e07ecdcc96256ae8d5b80,611e70924513e4d05abf6e6f,
,,,,space,0.492,,0,224,224,65,1,M, , , , ,space,1500,1.5,,001,2021-08-19_15h55.02,natb3,2021.2.3,MacIntel,62.5,60cfbfd8b5865f350977409d,611e07ecdcc96256ae8d5b80,611e70924513e4d05abf6e6f,
,,,,space,0.393,,0,225,225,21,1,J, , , , ,space,1500,1.5,,001,2021-08-19_15h55.02,natb3,2021.2.3,MacIntel,62.5,60cfbfd8b5865f350977409d,611e07ecdcc96256ae8d5b80,611e70924513e4d05abf6e6f,
,,,,,,,0,226,226,268,1,X,6, ,3, ,,2500,2.5,,001,2021-08-19_15h55.02,natb3,2021.2.3,MacIntel,62.5,60cfbfd8b5865f350977409d,611e07ecdcc96256ae8d5b80,611e70924513e4d05abf6e6f,
,,,,,,,0,227,227,287,1,X, ,2, ,9,,2000,2,,001,2021-08-19_15h55.02,natb3,2021.2.3,MacIntel,62.5,60cfbfd8b5865f350977409d,611e07ecdcc96256ae8d5b80,611e70924513e4d05abf6e6f,
,,,,space,0.511,,0,228,228,245,1,K, , , , ,space,2000,2,,001,2021-08-19_15h55.02,natb3,2021.2.3,MacIntel,62.5,60cfbfd8b5865f350977409d,611e07ecdcc96256ae8d5b80,611e70924513e4d05abf6e6f,
,,,,,,,0,229,229,153,1,X,4,7, ,6,,2000,2,,001,2021-08-19_15h55.02,natb3,2021.2.3,MacIntel,62.5,60cfbfd8b5865f350977409d,611e07ecdcc96256ae8d5b80,611e70924513e4d05abf6e6f,
,,,,space,0.759,,0,230,230,294,1,T, , , , ,space,2000,2,,001,2021-08-19_15h55.02,natb3,2021.2.3,MacIntel,62.5,60cfbfd8b5865f350977409d,611e07ecdcc96256ae8d5b80,611e70924513e4d05abf6e6f,
,,,,space,0.382,,0,231,231,173,1,V, , , , ,space,1500,1.5,,001,2021-08-19_15h55.02,natb3,2021.2.3,MacIntel,62.5,60cfbfd8b5865f350977409d,611e07ecdcc96256ae8d5b80,611e70924513e4d05abf6e6f,
,,,,,,,0,232,232,122,1,X,1, , ,8,,1500,1.5,,001,2021-08-19_15h55.02,natb3,2021.2.3,MacIntel,62.5,60cfbfd8b5865f350977409d,611e07ecdcc96256ae8d5b80,611e70924513e4d05abf6e6f,
,,,,space,0.438,,0,233,233,85,1,F, , , , ,space,2500,2.5,,001,2021-08-19_15h55.02,natb3,2021.2.3,MacIntel,62.5,60cfbfd8b5865f350977409d,611e07ecdcc96256ae8d5b80,611e70924513e4d05abf6e6f,
,,,,,,,0,234,234,182,1,X, , , , ,,1500,1.5,,001,2021-08-19_15h55.02,natb3,2021.2.3,MacIntel,62.5,60cfbfd8b5865f350977409d,611e07ecdcc96256ae8d5b80,611e70924513e4d05abf6e6f,
,,,,space,0.393,,0,235,235,11,1,P, , , , ,space,2500,2.5,,001,2021-08-19_15h55.02,natb3,2021.2.3,MacIntel,62.5,60cfbfd8b5865f350977409d,611e07ecdcc96256ae8d5b80,611e70924513e4d05abf6e6f,
,,,,space,0.617,,0,236,236,24,1,L, , , , ,space,2500,2.5,,001,2021-08-19_15h55.02,natb3,2021.2.3,MacIntel,62.5,60cfbfd8b5865f350977409d,611e07ecdcc96256ae8d5b80,611e70924513e4d05abf6e6f,
,,,,,,,0,237,237,239,1,X, , , , ,,2000,2,,001,2021-08-19_15h55.02,natb3,2021.2.3,MacIntel,62.5,60cfbfd8b5865f350977409d,611e07ecdcc96256ae8d5b80,611e70924513e4d05abf6e6f,
,,,,,,,0,238,238,89,1,X,3, , , ,,2000,2,,001,2021-08-19_15h55.02,natb3,2021.2.3,MacIntel,62.5,60cfbfd8b5865f350977409d,611e07ecdcc96256ae8d5b80,611e70924513e4d05abf6e6f,
,,,,space,0.508,,0,239,239,37,1,E, , , , ,space,2500,2.5,,001,2021-08-19_15h55.02,natb3,2021.2.3,MacIntel,62.5,60cfbfd8b5865f350977409d,611e07ecdcc96256ae8d5b80,611e70924513e4d05abf6e6f,
,,,,space,0.665,,0,240,240,281,1,Z, , , , ,space,1500,1.5,,001,2021-08-19_15h55.02,natb3,2021.2.3,MacIntel,62.5,60cfbfd8b5865f350977409d,611e07ecdcc96256ae8d5b80,611e70924513e4d05abf6e6f,
,,,,space,0.425,,0,241,241,30,1,N, , , , ,space,2500,2.5,,001,2021-08-19_15h55.02,natb3,2021.2.3,MacIntel,62.5,60cfbfd8b5865f350977409d,611e07ecdcc96256ae8d5b80,611e70924513e4d05abf6e6f,
,,,,space,0.476,,0,242,242,45,1,O, , , , ,space,2000,2,,001,2021-08-19_15h55.02,natb3,2021.2.3,MacIntel,62.5,60cfbfd8b5865f350977409d,611e07ecdcc96256ae8d5b80,611e70924513e4d05abf6e6f,
,,,,,,,0,243,243,248,1,X, ,1,5, ,,1500,1.5,,001,2021-08-19_15h55.02,natb3,2021.2.3,MacIntel,62.5,60cfbfd8b5865f350977409d,611e07ecdcc96256ae8d5b80,611e70924513e4d05abf6e6f,
,,,,space,0.495,,0,244,244,42,1,U, , , , ,space,1500,1.5,,001,2021-08-19_15h55.02,natb3,2021.2.3,MacIntel,62.5,60cfbfd8b5865f350977409d,611e07ecdcc96256ae8d5b80,611e70924513e4d05abf6e6f,
,,,,space,0.487,,0,245,245,180,1,W, , , , ,space,2000,2,,001,2021-08-19_15h55.02,natb3,2021.2.3,MacIntel,62.5,60cfbfd8b5865f350977409d,611e07ecdcc96256ae8d5b80,611e70924513e4d05abf6e6f,
,,,,space,0.432,,0,246,246,109,1,U, , , , ,space,1500,1.5,,001,2021-08-19_15h55.02,natb3,2021.2.3,MacIntel,62.5,60cfbfd8b5865f350977409d,611e07ecdcc96256ae8d5b80,611e70924513e4d05abf6e6f,
,,,,space,0.373,,0,247,247,304,1,S, , , , ,space,2000,2,,001,2021-08-19_15h55.02,natb3,2021.2.3,MacIntel,62.5,60cfbfd8b5865f350977409d,611e07ecdcc96256ae8d5b80,611e70924513e4d05abf6e6f,
,,,,space,0.401,,0,248,248,86,1,G, , , , ,space,2000,2,,001,2021-08-19_15h55.02,natb3,2021.2.3,MacIntel,62.5,60cfbfd8b5865f350977409d,611e07ecdcc96256ae8d5b80,611e70924513e4d05abf6e6f,
,,,,,,,0,249,249,263,1,X,4, ,6, ,,1500,1.5,,001,2021-08-19_15h55.02,natb3,2021.2.3,MacIntel,62.5,60cfbfd8b5865f350977409d,611e07ecdcc96256ae8d5b80,611e70924513e4d05abf6e6f,
,,,,space,0.439,,0,250,250,221,1,I, , , , ,space,2500,2.5,,001,2021-08-19_15h55.02,natb3,2021.2.3,MacIntel,62.5,60cfbfd8b5865f350977409d,611e07ecdcc96256ae8d5b80,611e70924513e4d05abf6e6f,
,,,,space,0.425,,0,251,251,57,1,K, , , , ,space,2500,2.5,,001,2021-08-19_15h55.02,natb3,2021.2.3,MacIntel,62.5,60cfbfd8b5865f350977409d,611e07ecdcc96256ae8d5b80,611e70924513e4d05abf6e6f,
,,,,space,0.443,,0,252,252,256,1,Q, , , , ,space,2000,2,,001,2021-08-19_15h55.02,natb3,2021.2.3,MacIntel,62.5,60cfbfd8b5865f350977409d,611e07ecdcc96256ae8d5b80,611e70924513e4d05abf6e6f,
,,,,space,0.397,,0,253,253,320,1,B, , , , ,space,1500,1.5,,001,2021-08-19_15h55.02,natb3,2021.2.3,MacIntel,62.5,60cfbfd8b5865f350977409d,611e07ecdcc96256ae8d5b80,611e70924513e4d05abf6e6f,
,,,,space,0.398,,0,254,254,119,1,Y, , , , ,space,2500,2.5,,001,2021-08-19_15h55.02,natb3,2021.2.3,MacIntel,62.5,60cfbfd8b5865f350977409d,611e07ecdcc96256ae8d5b80,611e70924513e4d05abf6e6f,
,,,,space,0.397,,0,255,255,174,1,B, , , , ,space,2500,2.5,,001,2021-08-19_15h55.02,natb3,2021.2.3,MacIntel,62.5,60cfbfd8b5865f350977409d,611e07ecdcc96256ae8d5b80,611e70924513e4d05abf6e6f,
,,,,space,0.632,,0,256,256,301,1,P, , , , ,space,1500,1.5,,001,2021-08-19_15h55.02,natb3,2021.2.3,MacIntel,62.5,60cfbfd8b5865f350977409d,611e07ecdcc96256ae8d5b80,611e70924513e4d05abf6e6f,
,,,,space,0.362,,0,257,257,279,1,K, , , , ,space,2500,2.5,,001,2021-08-19_15h55.02,natb3,2021.2.3,MacIntel,62.5,60cfbfd8b5865f350977409d,611e07ecdcc96256ae8d5b80,611e70924513e4d05abf6e6f,
,,,,space,0.381,,0,258,258,113,1,W, , , , ,space,2500,2.5,,001,2021-08-19_15h55.02,natb3,2021.2.3,MacIntel,62.5,60cfbfd8b5865f350977409d,611e07ecdcc96256ae8d5b80,611e70924513e4d05abf6e6f,
,,,,space,0.383,,0,259,259,88,1,J, , , , ,space,2500,2.5,,001,2021-08-19_15h55.02,natb3,2021.2.3,MacIntel,62.5,60cfbfd8b5865f350977409d,611e07ecdcc96256ae8d5b80,611e70924513e4d05abf6e6f,
,,,,space,0.424,,0,260,260,1,1,W, , , , ,space,2000,2,,001,2021-08-19_15h55.02,natb3,2021.2.3,MacIntel,62.5,60cfbfd8b5865f350977409d,611e07ecdcc96256ae8d5b80,611e70924513e4d05abf6e6f,
,,,,space,0.377,,0,261,261,77,1,O, , , , ,space,2000,2,,001,2021-08-19_15h55.02,natb3,2021.2.3,MacIntel,62.5,60cfbfd8b5865f350977409d,611e07ecdcc96256ae8d5b80,611e70924513e4d05abf6e6f,
,,,,space,0.435,,0,262,262,230,1,U, , , , ,space,1500,1.5,,001,2021-08-19_15h55.02,natb3,2021.2.3,MacIntel,62.5,60cfbfd8b5865f350977409d,611e07ecdcc96256ae8d5b80,611e70924513e4d05abf6e6f,
,,,,space,0.341,,0,263,263,50,1,D, , , , ,space,1500,1.5,,001,2021-08-19_15h55.02,natb3,2021.2.3,MacIntel,62.5,60cfbfd8b5865f350977409d,611e07ecdcc96256ae8d5b80,611e70924513e4d05abf6e6f,
,,,,,,,0,264,264,252,1,X,3, ,6,9,,2000,2,,001,2021-08-19_15h55.02,natb3,2021.2.3,MacIntel,62.5,60cfbfd8b5865f350977409d,611e07ecdcc96256ae8d5b80,611e70924513e4d05abf6e6f,
,,,,space,0.504,,0,265,265,52,1,F, , , , ,space,1500,1.5,,001,2021-08-19_15h55.02,natb3,2021.2.3,MacIntel,62.5,60cfbfd8b5865f350977409d,611e07ecdcc96256ae8d5b80,611e70924513e4d05abf6e6f,
,,,,space,0.343,,0,266,266,2,1,E, , , , ,space,2500,2.5,,001,2021-08-19_15h55.02,natb3,2021.2.3,MacIntel,62.5,60cfbfd8b5865f350977409d,611e07ecdcc96256ae8d5b80,611e70924513e4d05abf6e6f,
,,,,,,,0,267,267,175,1,X,7, ,4,2,,1500,1.5,,001,2021-08-19_15h55.02,natb3,2021.2.3,MacIntel,62.5,60cfbfd8b5865f350977409d,611e07ecdcc96256ae8d5b80,611e70924513e4d05abf6e6f,
,,,,space,0.42,,0,268,268,222,1,O, , , , ,space,2000,2,,001,2021-08-19_15h55.02,natb3,2021.2.3,MacIntel,62.5,60cfbfd8b5865f350977409d,611e07ecdcc96256ae8d5b80,611e70924513e4d05abf6e6f,
,,,,space,0.482,,0,269,269,264,1,U, , , , ,space,2000,2,,001,2021-08-19_15h55.02,natb3,2021.2.3,MacIntel,62.5,60cfbfd8b5865f350977409d,611e07ecdcc96256ae8d5b80,611e70924513e4d05abf6e6f,
,,,,space,0.416,,0,270,270,83,1,D, , , , ,space,2000,2,,001,2021-08-19_15h55.02,natb3,2021.2.3,MacIntel,62.5,60cfbfd8b5865f350977409d,611e07ecdcc96256ae8d5b80,611e70924513e4d05abf6e6f,
,,,,space,0.384,,0,271,271,97,1,B, , , , ,space,2500,2.5,,001,2021-08-19_15h55.02,natb3,2021.2.3,MacIntel,62.5,60cfbfd8b5865f350977409d,611e07ecdcc96256ae8d5b80,611e70924513e4d05abf6e6f,
,,,,space,0.381,,0,272,272,219,1,Y, , , , ,space,2000,2,,001,2021-08-19_15h55.02,natb3,2021.2.3,MacIntel,62.5,60cfbfd8b5865f350977409d,611e07ecdcc96256ae8d5b80,611e70924513e4d05abf6e6f,
,,,,space,0.375,,0,273,273,49,1,S, , , , ,space,1500,1.5,,001,2021-08-19_15h55.02,natb3,2021.2.3,MacIntel,62.5,60cfbfd8b5865f350977409d,611e07ecdcc96256ae8d5b80,611e70924513e4d05abf6e6f,
,,,,space,0.406,,0,274,274,270,1,S, , , , ,space,1500,1.5,,001,2021-08-19_15h55.02,natb3,2021.2.3,MacIntel,62.5,60cfbfd8b5865f350977409d,611e07ecdcc96256ae8d5b80,611e70924513e4d05abf6e6f,
,,,,space,0.376,,0,275,275,75,1,U, , , , ,space,1500,1.5,,001,2021-08-19_15h55.02,natb3,2021.2.3,MacIntel,62.5,60cfbfd8b5865f350977409d,611e07ecdcc96256ae8d5b80,611e70924513e4d05abf6e6f,
,,,,space,0.416,,0,276,276,199,1,J, , , , ,space,2500,2.5,,001,2021-08-19_15h55.02,natb3,2021.2.3,MacIntel,62.5,60cfbfd8b5865f350977409d,611e07ecdcc96256ae8d5b80,611e70924513e4d05abf6e6f,
,,,,space,0.44,,0,277,277,44,1,I, , , , ,space,2500,2.5,,001,2021-08-19_15h55.02,natb3,2021.2.3,MacIntel,62.5,60cfbfd8b5865f350977409d,611e07ecdcc96256ae8d5b80,611e70924513e4d05abf6e6f,
,,,,space,0.445,,0,278,278,272,1,D, , , , ,space,2000,2,,001,2021-08-19_15h55.02,natb3,2021.2.3,MacIntel,62.5,60cfbfd8b5865f350977409d,611e07ecdcc96256ae8d5b80,611e70924513e4d05abf6e6f,
,,,,,,,0,279,279,96,1,X, , , , ,,1500,1.5,,001,2021-08-19_15h55.02,natb3,2021.2.3,MacIntel,62.5,60cfbfd8b5865f350977409d,611e07ecdcc96256ae8d5b80,611e70924513e4d05abf6e6f,
,,,,space,0.492,,0,280,280,164,1,H, , , , ,space,2500,2.5,,001,2021-08-19_15h55.02,natb3,2021.2.3,MacIntel,62.5,60cfbfd8b5865f350977409d,611e07ecdcc96256ae8d5b80,611e70924513e4d05abf6e6f,
,,,,,,,0,281,281,311,1,X,1,2,7,3,,2500,2.5,,001,2021-08-19_15h55.02,natb3,2021.2.3,MacIntel,62.5,60cfbfd8b5865f350977409d,611e07ecdcc96256ae8d5b80,611e70924513e4d05abf6e6f,
,,,,space,0.405,,0,282,282,47,1,P, , , , ,space,2000,2,,001,2021-08-19_15h55.02,natb3,2021.2.3,MacIntel,62.5,60cfbfd8b5865f350977409d,611e07ecdcc96256ae8d5b80,611e70924513e4d05abf6e6f,
,,,,space,0.433,,0,283,283,261,1,T, , , , ,space,2000,2,,001,2021-08-19_15h55.02,natb3,2021.2.3,MacIntel,62.5,60cfbfd8b5865f350977409d,611e07ecdcc96256ae8d5b80,611e70924513e4d05abf6e6f,
,,,,space,0.381,,0,284,284,225,1,E, , , , ,space,2000,2,,001,2021-08-19_15h55.02,natb3,2021.2.3,MacIntel,62.5,60cfbfd8b5865f350977409d,611e07ecdcc96256ae8d5b80,611e70924513e4d05abf6e6f,
,,,,space,0.318,,0,285,285,197,1,G, , , , ,space,2500,2.5,,001,2021-08-19_15h55.02,natb3,2021.2.3,MacIntel,62.5,60cfbfd8b5865f350977409d,611e07ecdcc96256ae8d5b80,611e70924513e4d05abf6e6f,
,,,,,,,0,286,286,23,1,X,1, ,5, ,,2000,2,,001,2021-08-19_15h55.02,natb3,2021.2.3,MacIntel,62.5,60cfbfd8b5865f350977409d,611e07ecdcc96256ae8d5b80,611e70924513e4d05abf6e6f,
,,,,space,0.472,,0,287,287,73,1,Y, , , , ,space,2000,2,,001,2021-08-19_15h55.02,natb3,2021.2.3,MacIntel,62.5,60cfbfd8b5865f350977409d,611e07ecdcc96256ae8d5b80,611e70924513e4d05abf6e6f,
,,,,space,0.358,,0,288,288,321,1,N, , , , ,space,2000,2,,001,2021-08-19_15h55.02,natb3,2021.2.3,MacIntel,62.5,60cfbfd8b5865f350977409d,611e07ecdcc96256ae8d5b80,611e70924513e4d05abf6e6f,
,,,,space,0.384,,0,289,289,189,1,O, , , , ,space,1500,1.5,,001,2021-08-19_15h55.02,natb3,2021.2.3,MacIntel,62.5,60cfbfd8b5865f350977409d,611e07ecdcc96256ae8d5b80,611e70924513e4d05abf6e6f,
,,,,space,0.498,,0,290,290,247,1,Z, , , , ,space,1500,1.5,,001,2021-08-19_15h55.02,natb3,2021.2.3,MacIntel,62.5,60cfbfd8b5865f350977409d,611e07ecdcc96256ae8d5b80,611e70924513e4d05abf6e6f,
,,,,,,,0,291,291,27,1,X,5, ,1,3,,1500,1.5,,001,2021-08-19_15h55.02,natb3,2021.2.3,MacIntel,62.5,60cfbfd8b5865f350977409d,611e07ecdcc96256ae8d5b80,611e70924513e4d05abf6e6f,
,,,,space,0.392,,0,292,292,105,1,R, , , , ,space,2500,2.5,,001,2021-08-19_15h55.02,natb3,2021.2.3,MacIntel,62.5,60cfbfd8b5865f350977409d,611e07ecdcc96256ae8d5b80,611e70924513e4d05abf6e6f,
,,,,,,,0,293,293,133,1,X, ,4, ,6,,2500,2.5,,001,2021-08-19_15h55.02,natb3,2021.2.3,MacIntel,62.5,60cfbfd8b5865f350977409d,611e07ecdcc96256ae8d5b80,611e70924513e4d05abf6e6f,
,,,,space,0.489,,0,294,294,19,1,G, , , , ,space,1500,1.5,,001,2021-08-19_15h55.02,natb3,2021.2.3,MacIntel,62.5,60cfbfd8b5865f350977409d,611e07ecdcc96256ae8d5b80,611e70924513e4d05abf6e6f,
,,,,,,,0,295,295,271,1,X, , , , ,,2500,2.5,,001,2021-08-19_15h55.02,natb3,2021.2.3,MacIntel,62.5,60cfbfd8b5865f350977409d,611e07ecdcc96256ae8d5b80,611e70924513e4d05abf6e6f,
,,,,,,,0,296,296,33,1,X, , , , ,,1500,1.5,,001,2021-08-19_15h55.02,natb3,2021.2.3,MacIntel,62.5,60cfbfd8b5865f350977409d,611e07ecdcc96256ae8d5b80,611e70924513e4d05abf6e6f,
,,,,space,0.477,,0,297,297,254,1,M, , , , ,space,1500,1.5,,001,2021-08-19_15h55.02,natb3,2021.2.3,MacIntel,62.5,60cfbfd8b5865f350977409d,611e07ecdcc96256ae8d5b80,611e70924513e4d05abf6e6f,
,,,,space,0.385,,0,298,298,190,1,P, , , , ,space,2000,2,,001,2021-08-19_15h55.02,natb3,2021.2.3,MacIntel,62.5,60cfbfd8b5865f350977409d,611e07ecdcc96256ae8d5b80,611e70924513e4d05abf6e6f,
,,,,,,,0,299,299,277,1,X,8,5, ,2,,2000,2,,001,2021-08-19_15h55.02,natb3,2021.2.3,MacIntel,62.5,60cfbfd8b5865f350977409d,611e07ecdcc96256ae8d5b80,611e70924513e4d05abf6e6f,
,,,,,,,0,300,300,7,1,X, , , , ,,1500,1.5,,001,2021-08-19_15h55.02,natb3,2021.2.3,MacIntel,62.5,60cfbfd8b5865f350977409d,611e07ecdcc96256ae8d5b80,611e70924513e4d05abf6e6f,
,,,,space,0.507,,0,301,301,136,1,Z, , , , ,space,2500,2.5,,001,2021-08-19_15h55.02,natb3,2021.2.3,MacIntel,62.5,60cfbfd8b5865f350977409d,611e07ecdcc96256ae8d5b80,611e70924513e4d05abf6e6f,
,,,,space,0.415,,0,302,302,165,1,J, , , , ,space,2500,2.5,,001,2021-08-19_15h55.02,natb3,2021.2.3,MacIntel,62.5,60cfbfd8b5865f350977409d,611e07ecdcc96256ae8d5b80,611e70924513e4d05abf6e6f,
,,,,space,0.369,,0,303,303,100,1,M, , , , ,space,2000,2,,001,2021-08-19_15h55.02,natb3,2021.2.3,MacIntel,62.5,60cfbfd8b5865f350977409d,611e07ecdcc96256ae8d5b80,611e70924513e4d05abf6e6f,
,,,,space,0.343,,0,304,304,55,1,H, , , , ,space,2500,2.5,,001,2021-08-19_15h55.02,natb3,2021.2.3,MacIntel,62.5,60cfbfd8b5865f350977409d,611e07ecdcc96256ae8d5b80,611e70924513e4d05abf6e6f,
,,,,space,0.326,,0,305,305,251,1,B, , , , ,space,1500,1.5,,001,2021-08-19_15h55.02,natb3,2021.2.3,MacIntel,62.5,60cfbfd8b5865f350977409d,611e07ecdcc96256ae8d5b80,611e70924513e4d05abf6e6f,
,,,,,,,0,306,306,162,1,X,1,6, ,2,,1500,1.5,,001,2021-08-19_15h55.02,natb3,2021.2.3,MacIntel,62.5,60cfbfd8b5865f350977409d,611e07ecdcc96256ae8d5b80,611e70924513e4d05abf6e6f,
,,,,space,0.422,,0,307,307,289,1,Q, , , , ,space,2000,2,,001,2021-08-19_15h55.02,natb3,2021.2.3,MacIntel,62.5,60cfbfd8b5865f350977409d,611e07ecdcc96256ae8d5b80,611e70924513e4d05abf6e6f,
,,,,space,0.575,,0,308,308,308,1,G, , , , ,space,1500,1.5,,001,2021-08-19_15h55.02,natb3,2021.2.3,MacIntel,62.5,60cfbfd8b5865f350977409d,611e07ecdcc96256ae8d5b80,611e70924513e4d05abf6e6f,
,,,,space,0.412,,0,309,309,127,1,S, , , , ,space,2500,2.5,,001,2021-08-19_15h55.02,natb3,2021.2.3,MacIntel,62.5,60cfbfd8b5865f350977409d,611e07ecdcc96256ae8d5b80,611e70924513e4d05abf6e6f,
,,,,,,,0,310,310,74,1,X, ,4,3,2,,1500,1.5,,001,2021-08-19_15h55.02,natb3,2021.2.3,MacIntel,62.5,60cfbfd8b5865f350977409d,611e07ecdcc96256ae8d5b80,611e70924513e4d05abf6e6f,
,,,,space,0.414,,0,311,311,172,1,C, , , , ,space,1500,1.5,,001,2021-08-19_15h55.02,natb3,2021.2.3,MacIntel,62.5,60cfbfd8b5865f350977409d,611e07ecdcc96256ae8d5b80,611e70924513e4d05abf6e6f,
,,,,space,0.467,,0,312,312,53,1,G, , , , ,space,2500,2.5,,001,2021-08-19_15h55.02,natb3,2021.2.3,MacIntel,62.5,60cfbfd8b5865f350977409d,611e07ecdcc96256ae8d5b80,611e70924513e4d05abf6e6f,
,,,,space,0.41,,0,313,313,22,1,K, , , , ,space,2000,2,,001,2021-08-19_15h55.02,natb3,2021.2.3,MacIntel,62.5,60cfbfd8b5865f350977409d,611e07ecdcc96256ae8d5b80,611e70924513e4d05abf6e6f,
,,,,space,0.376,,0,314,314,32,1,M, , , , ,space,1500,1.5,,001,2021-08-19_15h55.02,natb3,2021.2.3,MacIntel,62.5,60cfbfd8b5865f350977409d,611e07ecdcc96256ae8d5b80,611e70924513e4d05abf6e6f,
,,,,,,,0,315,315,236,1,X,3, ,4,7,,2500,2.5,,001,2021-08-19_15h55.02,natb3,2021.2.3,MacIntel,62.5,60cfbfd8b5865f350977409d,611e07ecdcc96256ae8d5b80,611e70924513e4d05abf6e6f,
,,,,space,0.445,,0,316,316,61,1,C, , , , ,space,2000,2,,001,2021-08-19_15h55.02,natb3,2021.2.3,MacIntel,62.5,60cfbfd8b5865f350977409d,611e07ecdcc96256ae8d5b80,611e70924513e4d05abf6e6f,
,,,,space,0.768,,0,317,317,205,1,C, , , , ,space,2000,2,,001,2021-08-19_15h55.02,natb3,2021.2.3,MacIntel,62.5,60cfbfd8b5865f350977409d,611e07ecdcc96256ae8d5b80,611e70924513e4d05abf6e6f,
,,,,space,0.424,,0,318,318,135,1,K, , , , ,space,1500,1.5,,001,2021-08-19_15h55.02,natb3,2021.2.3,MacIntel,62.5,60cfbfd8b5865f350977409d,611e07ecdcc96256ae8d5b80,611e70924513e4d05abf6e6f,
,,,,space,0.36,,0,319,319,151,1,Y, , , , ,space,2500,2.5,,001,2021-08-19_15h55.02,natb3,2021.2.3,MacIntel,62.5,60cfbfd8b5865f350977409d,611e07ecdcc96256ae8d5b80,611e70924513e4d05abf6e6f,
,,,,space,0.606,,0,320,320,193,1,S, , , , ,space,2500,2.5,,001,2021-08-19_15h55.02,natb3,2021.2.3,MacIntel,62.5,60cfbfd8b5865f350977409d,611e07ecdcc96256ae8d5b80,611e70924513e4d05abf6e6f,
,,,,space,0.398,,0,321,321,62,1,V, , , , ,space,1500,1.5,,001,2021-08-19_15h55.02,natb3,2021.2.3,MacIntel,62.5,60cfbfd8b5865f350977409d,611e07ecdcc96256ae8d5b80,611e70924513e4d05abf6e6f,
,,,,space,0.497,,0,322,322,274,1,F, , , , ,space,2000,2,,001,2021-08-19_15h55.02,natb3,2021.2.3,MacIntel,62.5,60cfbfd8b5865f350977409d,611e07ecdcc96256ae8d5b80,611e70924513e4d05abf6e6f,
,,,,space,0.374,,0,323,323,211,1,X, , , , ,,2500,2.5,,001,2021-08-19_15h55.02,natb3,2021.2.3,MacIntel,62.5,60cfbfd8b5865f350977409d,611e07ecdcc96256ae8d5b80,611e70924513e4d05abf6e6f,
,,,,space,0.699,,0,324,324,139,1,V, , , , ,space,2000,2,,001,2021-08-19_15h55.02,natb3,2021.2.3,MacIntel,62.5,60cfbfd8b5865f350977409d,611e07ecdcc96256ae8d5b80,611e70924513e4d05abf6e6f,
,,,,,,,0,325,325,138,1,X,8,5, ,3,,2000,2,,001,2021-08-19_15h55.02,natb3,2021.2.3,MacIntel,62.5,60cfbfd8b5865f350977409d,611e07ecdcc96256ae8d5b80,611e70924513e4d05abf6e6f,
,,,,space,0.871,,0,326,326,212,1,Q, , , , ,space,2500,2.5,,001,2021-08-19_15h55.02,natb3,2021.2.3,MacIntel,62.5,60cfbfd8b5865f350977409d,611e07ecdcc96256ae8d5b80,611e70924513e4d05abf6e6f,
,,,,space,0.572,,0,327,327,26,1,C, , , , ,space,2000,2,,001,2021-08-19_15h55.02,natb3,2021.2.3,MacIntel,62.5,60cfbfd8b5865f350977409d,611e07ecdcc96256ae8d5b80,611e70924513e4d05abf6e6f,
,,,,space,0.377,,0,328,328,206,1,V, , , , ,space,2000,2,,001,2021-08-19_15h55.02,natb3,2021.2.3,MacIntel,62.5,60cfbfd8b5865f350977409d,611e07ecdcc96256ae8d5b80,611e70924513e4d05abf6e6f,
,,,,space,0.399,,0,329,329,290,1,W, , , , ,space,1500,1.5,,001,2021-08-19_15h55.02,natb3,2021.2.3,MacIntel,62.5,60cfbfd8b5865f350977409d,611e07ecdcc96256ae8d5b80,611e70924513e4d05abf6e6f,
,,,,,,,0,330,330,43,1,X, ,6, ,2,,2500,2.5,,001,2021-08-19_15h55.02,natb3,2021.2.3,MacIntel,62.5,60cfbfd8b5865f350977409d,611e07ecdcc96256ae8d5b80,611e70924513e4d05abf6e6f,
,,,,,,,0,331,331,168,1,X, , , , ,,2500,2.5,,001,2021-08-19_15h55.02,natb3,2021.2.3,MacIntel,62.5,60cfbfd8b5865f350977409d,611e07ecdcc96256ae8d5b80,611e70924513e4d05abf6e6f,
,,,,space,0.459,,0,332,332,297,1,U, , , , ,space,2000,2,,001,2021-08-19_15h55.02,natb3,2021.2.3,MacIntel,62.5,60cfbfd8b5865f350977409d,611e07ecdcc96256ae8d5b80,611e70924513e4d05abf6e6f,
,,,,,,,0,333,333,35,1,X, , , , ,,2500,2.5,,001,2021-08-19_15h55.02,natb3,2021.2.3,MacIntel,62.5,60cfbfd8b5865f350977409d,611e07ecdcc96256ae8d5b80,611e70924513e4d05abf6e6f,
,,,,space,0.574,,0,334,334,326,1,W, , , , ,space,2000,2,,001,2021-08-19_15h55.02,natb3,2021.2.3,MacIntel,62.5,60cfbfd8b5865f350977409d,611e07ecdcc96256ae8d5b80,611e70924513e4d05abf6e6f,
,,,,space,0.436,,0,335,335,160,1,D, , , , ,space,1500,1.5,,001,2021-08-19_15h55.02,natb3,2021.2.3,MacIntel,62.5,60cfbfd8b5865f350977409d,611e07ecdcc96256ae8d5b80,611e70924513e4d05abf6e6f,
