key_resp_2.keys,key_resp_2.rt,key_resp_3.keys,key_resp_3.rt,key_resp.keys,key_resp.rt,key_resp_4.keys,trials.thisRepN,trials.thisTrialN,trials.thisN,trials.thisIndex,trials.ran,stimulus,distractor1,distractor2,distractor3,distractor4,CorrAns,isi_duration,isi_dur_in_seconds,participant,session,date,expName,psychopyVersion,OS,frameRate,PROLIFIC_PID,STUDY_ID,SESSION_ID,key_resp_4.rt
return,27.9168,space,27.5673,space,0.8522,,0,0,0,308,1,G, , , , ,space,1500,1.5,,001,2021-08-19_16h25.06.050,natb3,2021.2.3,Win32,60.0024001,611bdb3cfaa8b28f0ecd3f55,611e07ecdcc96256ae8d5b80,611e77bae313b5cff1083b89,
,,,,,,,0,1,1,245,1,K, , , , ,space,2000,2,,001,2021-08-19_16h25.06.050,natb3,2021.2.3,Win32,60.0024001,611bdb3cfaa8b28f0ecd3f55,611e07ecdcc96256ae8d5b80,611e77bae313b5cff1083b89,
,,,,space,0.5003,,0,2,2,204,1,Z, , , , ,space,2000,2,,001,2021-08-19_16h25.06.050,natb3,2021.2.3,Win32,60.0024001,611bdb3cfaa8b28f0ecd3f55,611e07ecdcc96256ae8d5b80,611e77bae313b5cff1083b89,
,,,,space,0.4342,,0,3,3,324,1,Q, , , , ,space,2000,2,,001,2021-08-19_16h25.06.050,natb3,2021.2.3,Win32,60.0024001,611bdb3cfaa8b28f0ecd3f55,611e07ecdcc96256ae8d5b80,611e77bae313b5cff1083b89,
,,,,space,0.4338,,0,4,4,323,1,M, , , , ,space,2500,2.5,,001,2021-08-19_16h25.06.050,natb3,2021.2.3,Win32,60.0024001,611bdb3cfaa8b28f0ecd3f55,611e07ecdcc96256ae8d5b80,611e77bae313b5cff1083b89,
,,,,space,0.3336,,0,5,5,226,1,R, , , , ,space,2000,2,,001,2021-08-19_16h25.06.050,natb3,2021.2.3,Win32,60.0024001,611bdb3cfaa8b28f0ecd3f55,611e07ecdcc96256ae8d5b80,611e77bae313b5cff1083b89,
,,,,space,0.4334,,0,6,6,265,1,I, , , , ,space,2000,2,,001,2021-08-19_16h25.06.050,natb3,2021.2.3,Win32,60.0024001,611bdb3cfaa8b28f0ecd3f55,611e07ecdcc96256ae8d5b80,611e77bae313b5cff1083b89,
,,,,space,0.4003,,0,7,7,16,1,D, , , , ,space,1500,1.5,,001,2021-08-19_16h25.06.050,natb3,2021.2.3,Win32,60.0024001,611bdb3cfaa8b28f0ecd3f55,611e07ecdcc96256ae8d5b80,611e77bae313b5cff1083b89,
,,,,space,0.3837,,0,8,8,209,1,N, , , , ,space,2000,2,,001,2021-08-19_16h25.06.050,natb3,2021.2.3,Win32,60.0024001,611bdb3cfaa8b28f0ecd3f55,611e07ecdcc96256ae8d5b80,611e77bae313b5cff1083b89,
,,,,,,,0,9,9,96,1,X, , , , ,,1500,1.5,,001,2021-08-19_16h25.06.050,natb3,2021.2.3,Win32,60.0024001,611bdb3cfaa8b28f0ecd3f55,611e07ecdcc96256ae8d5b80,611e77bae313b5cff1083b89,
,,,,,,,0,10,10,98,1,X, , , , ,,2500,2.5,,001,2021-08-19_16h25.06.050,natb3,2021.2.3,Win32,60.0024001,611bdb3cfaa8b28f0ecd3f55,611e07ecdcc96256ae8d5b80,611e77bae313b5cff1083b89,
,,,,,,,0,11,11,268,1,X,6, ,3, ,,2500,2.5,,001,2021-08-19_16h25.06.050,natb3,2021.2.3,Win32,60.0024001,611bdb3cfaa8b28f0ecd3f55,611e07ecdcc96256ae8d5b80,611e77bae313b5cff1083b89,
,,,,,,,0,12,12,74,1,X, ,4,3,2,,1500,1.5,,001,2021-08-19_16h25.06.050,natb3,2021.2.3,Win32,60.0024001,611bdb3cfaa8b28f0ecd3f55,611e07ecdcc96256ae8d5b80,611e77bae313b5cff1083b89,
,,,,space,0.6,,0,13,13,135,1,K, , , , ,space,1500,1.5,,001,2021-08-19_16h25.06.050,natb3,2021.2.3,Win32,60.0024001,611bdb3cfaa8b28f0ecd3f55,611e07ecdcc96256ae8d5b80,611e77bae313b5cff1083b89,
,,,,space,0.517,,0,14,14,258,1,E, , , , ,space,1500,1.5,,001,2021-08-19_16h25.06.050,natb3,2021.2.3,Win32,60.0024001,611bdb3cfaa8b28f0ecd3f55,611e07ecdcc96256ae8d5b80,611e77bae313b5cff1083b89,
,,,,space,0.5671,,0,15,15,232,1,O, , , , ,space,2500,2.5,,001,2021-08-19_16h25.06.050,natb3,2021.2.3,Win32,60.0024001,611bdb3cfaa8b28f0ecd3f55,611e07ecdcc96256ae8d5b80,611e77bae313b5cff1083b89,
,,,,space,0.5503,,0,16,16,178,1,Q, , , , ,space,1500,1.5,,001,2021-08-19_16h25.06.050,natb3,2021.2.3,Win32,60.0024001,611bdb3cfaa8b28f0ecd3f55,611e07ecdcc96256ae8d5b80,611e77bae313b5cff1083b89,
,,,,space,0.567,,0,17,17,77,1,O, , , , ,space,2000,2,,001,2021-08-19_16h25.06.050,natb3,2021.2.3,Win32,60.0024001,611bdb3cfaa8b28f0ecd3f55,611e07ecdcc96256ae8d5b80,611e77bae313b5cff1083b89,
,,,,space,0.5502,,0,18,18,190,1,P, , , , ,space,2000,2,,001,2021-08-19_16h25.06.050,natb3,2021.2.3,Win32,60.0024001,611bdb3cfaa8b28f0ecd3f55,611e07ecdcc96256ae8d5b80,611e77bae313b5cff1083b89,
,,,,space,0.467,,0,19,19,283,1,C, , , , ,space,1500,1.5,,001,2021-08-19_16h25.06.050,natb3,2021.2.3,Win32,60.0024001,611bdb3cfaa8b28f0ecd3f55,611e07ecdcc96256ae8d5b80,611e77bae313b5cff1083b89,
,,,,,,,0,20,20,239,1,X, , , , ,,2000,2,,001,2021-08-19_16h25.06.050,natb3,2021.2.3,Win32,60.0024001,611bdb3cfaa8b28f0ecd3f55,611e07ecdcc96256ae8d5b80,611e77bae313b5cff1083b89,
,,,,,,,0,21,21,175,1,X,7, ,4,2,,1500,1.5,,001,2021-08-19_16h25.06.050,natb3,2021.2.3,Win32,60.0024001,611bdb3cfaa8b28f0ecd3f55,611e07ecdcc96256ae8d5b80,611e77bae313b5cff1083b89,
,,,,space,0.5501,,0,22,22,316,1,Z, , , , ,space,1500,1.5,,001,2021-08-19_16h25.06.050,natb3,2021.2.3,Win32,60.0024001,611bdb3cfaa8b28f0ecd3f55,611e07ecdcc96256ae8d5b80,611e77bae313b5cff1083b89,
,,,,space,0.4502,,0,23,23,253,1,N, , , , ,space,2500,2.5,,001,2021-08-19_16h25.06.050,natb3,2021.2.3,Win32,60.0024001,611bdb3cfaa8b28f0ecd3f55,611e07ecdcc96256ae8d5b80,611e77bae313b5cff1083b89,
,,,,,,,0,24,24,43,1,X, ,6, ,2,,2500,2.5,,001,2021-08-19_16h25.06.050,natb3,2021.2.3,Win32,60.0024001,611bdb3cfaa8b28f0ecd3f55,611e07ecdcc96256ae8d5b80,611e77bae313b5cff1083b89,
,,,,space,0.5501,,0,25,25,44,1,I, , , , ,space,2500,2.5,,001,2021-08-19_16h25.06.050,natb3,2021.2.3,Win32,60.0024001,611bdb3cfaa8b28f0ecd3f55,611e07ecdcc96256ae8d5b80,611e77bae313b5cff1083b89,
,,,,space,0.3669,,0,26,26,76,1,I, , , , ,space,2000,2,,001,2021-08-19_16h25.06.050,natb3,2021.2.3,Win32,60.0024001,611bdb3cfaa8b28f0ecd3f55,611e07ecdcc96256ae8d5b80,611e77bae313b5cff1083b89,
,,,,space,0.4336,,0,27,27,123,1,O, , , , ,space,1500,1.5,,001,2021-08-19_16h25.06.050,natb3,2021.2.3,Win32,60.0024001,611bdb3cfaa8b28f0ecd3f55,611e07ecdcc96256ae8d5b80,611e77bae313b5cff1083b89,
,,,,space,0.4001,,0,28,28,297,1,U, , , , ,space,2000,2,,001,2021-08-19_16h25.06.050,natb3,2021.2.3,Win32,60.0024001,611bdb3cfaa8b28f0ecd3f55,611e07ecdcc96256ae8d5b80,611e77bae313b5cff1083b89,
,,,,space,0.3501,,0,29,29,244,1,J, , , , ,space,1500,1.5,,001,2021-08-19_16h25.06.050,natb3,2021.2.3,Win32,60.0024001,611bdb3cfaa8b28f0ecd3f55,611e07ecdcc96256ae8d5b80,611e77bae313b5cff1083b89,
,,,,space,0.5169,,0,30,30,151,1,Y, , , , ,space,2500,2.5,,001,2021-08-19_16h25.06.050,natb3,2021.2.3,Win32,60.0024001,611bdb3cfaa8b28f0ecd3f55,611e07ecdcc96256ae8d5b80,611e77bae313b5cff1083b89,
,,,,,,,0,31,31,122,1,X,1, , ,8,,1500,1.5,,001,2021-08-19_16h25.06.050,natb3,2021.2.3,Win32,60.0024001,611bdb3cfaa8b28f0ecd3f55,611e07ecdcc96256ae8d5b80,611e77bae313b5cff1083b89,
,,,,space,0.4672,,0,32,32,306,1,D, , , , ,space,2000,2,,001,2021-08-19_16h25.06.050,natb3,2021.2.3,Win32,60.0024001,611bdb3cfaa8b28f0ecd3f55,611e07ecdcc96256ae8d5b80,611e77bae313b5cff1083b89,
,,,,space,0.4172,,0,33,33,304,1,S, , , , ,space,2000,2,,001,2021-08-19_16h25.06.050,natb3,2021.2.3,Win32,60.0024001,611bdb3cfaa8b28f0ecd3f55,611e07ecdcc96256ae8d5b80,611e77bae313b5cff1083b89,
,,,,space,0.5166,,0,34,34,48,1,A, , , , ,space,2500,2.5,,001,2021-08-19_16h25.06.050,natb3,2021.2.3,Win32,60.0024001,611bdb3cfaa8b28f0ecd3f55,611e07ecdcc96256ae8d5b80,611e77bae313b5cff1083b89,
,,,,space,0.4004,,0,35,35,26,1,C, , , , ,space,2000,2,,001,2021-08-19_16h25.06.050,natb3,2021.2.3,Win32,60.0024001,611bdb3cfaa8b28f0ecd3f55,611e07ecdcc96256ae8d5b80,611e77bae313b5cff1083b89,
,,,,,,,0,36,36,182,1,X, , , , ,,1500,1.5,,001,2021-08-19_16h25.06.050,natb3,2021.2.3,Win32,60.0024001,611bdb3cfaa8b28f0ecd3f55,611e07ecdcc96256ae8d5b80,611e77bae313b5cff1083b89,
,,,,,,,0,37,37,39,1,X,6,2, , ,,1500,1.5,,001,2021-08-19_16h25.06.050,natb3,2021.2.3,Win32,60.0024001,611bdb3cfaa8b28f0ecd3f55,611e07ecdcc96256ae8d5b80,611e77bae313b5cff1083b89,
,,,,space,0.5337,,0,38,38,161,1,F, , , , ,space,1500,1.5,,001,2021-08-19_16h25.06.050,natb3,2021.2.3,Win32,60.0024001,611bdb3cfaa8b28f0ecd3f55,611e07ecdcc96256ae8d5b80,611e77bae313b5cff1083b89,
,,,,,,,0,39,39,66,1,X, ,4,7, ,,2000,2,,001,2021-08-19_16h25.06.050,natb3,2021.2.3,Win32,60.0024001,611bdb3cfaa8b28f0ecd3f55,611e07ecdcc96256ae8d5b80,611e77bae313b5cff1083b89,
,,,,space,0.5167,,0,40,40,73,1,Y, , , , ,space,2000,2,,001,2021-08-19_16h25.06.050,natb3,2021.2.3,Win32,60.0024001,611bdb3cfaa8b28f0ecd3f55,611e07ecdcc96256ae8d5b80,611e77bae313b5cff1083b89,
,,,,space,0.4503,,0,41,41,38,1,R, , , , ,space,2500,2.5,,001,2021-08-19_16h25.06.050,natb3,2021.2.3,Win32,60.0024001,611bdb3cfaa8b28f0ecd3f55,611e07ecdcc96256ae8d5b80,611e77bae313b5cff1083b89,
,,,,space,0.4503,,0,42,42,177,1,M, , , , ,space,2500,2.5,,001,2021-08-19_16h25.06.050,natb3,2021.2.3,Win32,60.0024001,611bdb3cfaa8b28f0ecd3f55,611e07ecdcc96256ae8d5b80,611e77bae313b5cff1083b89,
,,,,,,,0,43,43,141,1,X,1, ,4,6,,1500,1.5,,001,2021-08-19_16h25.06.050,natb3,2021.2.3,Win32,60.0024001,611bdb3cfaa8b28f0ecd3f55,611e07ecdcc96256ae8d5b80,611e77bae313b5cff1083b89,
,,,,space,0.6995,,0,44,44,58,1,L, , , , ,space,2000,2,,001,2021-08-19_16h25.06.050,natb3,2021.2.3,Win32,60.0024001,611bdb3cfaa8b28f0ecd3f55,611e07ecdcc96256ae8d5b80,611e77bae313b5cff1083b89,
,,,,space,0.5334,,0,45,45,215,1,E, , , , ,space,2500,2.5,,001,2021-08-19_16h25.06.050,natb3,2021.2.3,Win32,60.0024001,611bdb3cfaa8b28f0ecd3f55,611e07ecdcc96256ae8d5b80,611e77bae313b5cff1083b89,
,,,,space,0.4001,,0,46,46,87,1,H, , , , ,space,1500,1.5,,001,2021-08-19_16h25.06.050,natb3,2021.2.3,Win32,60.0024001,611bdb3cfaa8b28f0ecd3f55,611e07ecdcc96256ae8d5b80,611e77bae313b5cff1083b89,
,,,,space,0.4502,,0,47,47,279,1,K, , , , ,space,2500,2.5,,001,2021-08-19_16h25.06.050,natb3,2021.2.3,Win32,60.0024001,611bdb3cfaa8b28f0ecd3f55,611e07ecdcc96256ae8d5b80,611e77bae313b5cff1083b89,
,,,,space,0.4175,,0,48,48,85,1,F, , , , ,space,2500,2.5,,001,2021-08-19_16h25.06.050,natb3,2021.2.3,Win32,60.0024001,611bdb3cfaa8b28f0ecd3f55,611e07ecdcc96256ae8d5b80,611e77bae313b5cff1083b89,
,,,,space,0.3844,,0,49,49,188,1,I, , , , ,space,2500,2.5,,001,2021-08-19_16h25.06.050,natb3,2021.2.3,Win32,60.0024001,611bdb3cfaa8b28f0ecd3f55,611e07ecdcc96256ae8d5b80,611e77bae313b5cff1083b89,
,,,,space,0.5408,,0,50,50,112,1,Q, , , , ,space,2500,2.5,,001,2021-08-19_16h25.06.050,natb3,2021.2.3,Win32,60.0024001,611bdb3cfaa8b28f0ecd3f55,611e07ecdcc96256ae8d5b80,611e77bae313b5cff1083b89,
,,,,space,0.5668,,0,51,51,180,1,W, , , , ,space,2000,2,,001,2021-08-19_16h25.06.050,natb3,2021.2.3,Win32,60.0024001,611bdb3cfaa8b28f0ecd3f55,611e07ecdcc96256ae8d5b80,611e77bae313b5cff1083b89,
,,,,space,0.4345,,0,52,52,53,1,G, , , , ,space,2500,2.5,,001,2021-08-19_16h25.06.050,natb3,2021.2.3,Win32,60.0024001,611bdb3cfaa8b28f0ecd3f55,611e07ecdcc96256ae8d5b80,611e77bae313b5cff1083b89,
,,,,space,0.3792,,0,53,53,310,1,J, , , , ,space,2500,2.5,,001,2021-08-19_16h25.06.050,natb3,2021.2.3,Win32,60.0024001,611bdb3cfaa8b28f0ecd3f55,611e07ecdcc96256ae8d5b80,611e77bae313b5cff1083b89,
,,,,space,0.4397,,0,54,54,11,1,P, , , , ,space,2500,2.5,,001,2021-08-19_16h25.06.050,natb3,2021.2.3,Win32,60.0024001,611bdb3cfaa8b28f0ecd3f55,611e07ecdcc96256ae8d5b80,611e77bae313b5cff1083b89,
,,,,space,0.3692,,0,55,55,28,1,V, , , , ,space,1500,1.5,,001,2021-08-19_16h25.06.050,natb3,2021.2.3,Win32,60.0024001,611bdb3cfaa8b28f0ecd3f55,611e07ecdcc96256ae8d5b80,611e77bae313b5cff1083b89,
,,,,space,0.3489,,0,56,56,327,1,E, , , , ,space,1500,1.5,,001,2021-08-19_16h25.06.050,natb3,2021.2.3,Win32,60.0024001,611bdb3cfaa8b28f0ecd3f55,611e07ecdcc96256ae8d5b80,611e77bae313b5cff1083b89,
,,,,,,,0,57,57,233,1,X, ,2, ,5,,1500,1.5,,001,2021-08-19_16h25.06.050,natb3,2021.2.3,Win32,60.0024001,611bdb3cfaa8b28f0ecd3f55,611e07ecdcc96256ae8d5b80,611e77bae313b5cff1083b89,
,,,,space,0.5073,,0,58,58,163,1,G, , , , ,space,2500,2.5,,001,2021-08-19_16h25.06.050,natb3,2021.2.3,Win32,60.0024001,611bdb3cfaa8b28f0ecd3f55,611e07ecdcc96256ae8d5b80,611e77bae313b5cff1083b89,
,,,,space,0.397,,0,59,59,65,1,M, , , , ,space,1500,1.5,,001,2021-08-19_16h25.06.050,natb3,2021.2.3,Win32,60.0024001,611bdb3cfaa8b28f0ecd3f55,611e07ecdcc96256ae8d5b80,611e77bae313b5cff1083b89,
,,,,space,0.4442,,0,60,60,228,1,Y, , , , ,space,2000,2,,001,2021-08-19_16h25.06.050,natb3,2021.2.3,Win32,60.0024001,611bdb3cfaa8b28f0ecd3f55,611e07ecdcc96256ae8d5b80,611e77bae313b5cff1083b89,
,,,,space,0.4859,,0,61,61,131,1,G, , , , ,space,1500,1.5,,001,2021-08-19_16h25.06.050,natb3,2021.2.3,Win32,60.0024001,611bdb3cfaa8b28f0ecd3f55,611e07ecdcc96256ae8d5b80,611e77bae313b5cff1083b89,
,,,,space,0.4168,,0,62,62,224,1,W, , , , ,space,1500,1.5,,001,2021-08-19_16h25.06.050,natb3,2021.2.3,Win32,60.0024001,611bdb3cfaa8b28f0ecd3f55,611e07ecdcc96256ae8d5b80,611e77bae313b5cff1083b89,
,,,,space,0.8119,,0,63,63,149,1,R, , , , ,space,2000,2,,001,2021-08-19_16h25.06.050,natb3,2021.2.3,Win32,60.0024001,611bdb3cfaa8b28f0ecd3f55,611e07ecdcc96256ae8d5b80,611e77bae313b5cff1083b89,
,,,,space,0.3002,,0,64,64,145,1,X, , , , ,,2000,2,,001,2021-08-19_16h25.06.050,natb3,2021.2.3,Win32,60.0024001,611bdb3cfaa8b28f0ecd3f55,611e07ecdcc96256ae8d5b80,611e77bae313b5cff1083b89,
,,,,space,0.5372,,0,65,65,193,1,S, , , , ,space,2500,2.5,,001,2021-08-19_16h25.06.050,natb3,2021.2.3,Win32,60.0024001,611bdb3cfaa8b28f0ecd3f55,611e07ecdcc96256ae8d5b80,611e77bae313b5cff1083b89,
,,,,space,0.4626,,0,66,66,42,1,U, , , , ,space,1500,1.5,,001,2021-08-19_16h25.06.050,natb3,2021.2.3,Win32,60.0024001,611bdb3cfaa8b28f0ecd3f55,611e07ecdcc96256ae8d5b80,611e77bae313b5cff1083b89,
,,,,space,0.4275,,0,67,67,121,1,I, , , , ,space,2000,2,,001,2021-08-19_16h25.06.050,natb3,2021.2.3,Win32,60.0024001,611bdb3cfaa8b28f0ecd3f55,611e07ecdcc96256ae8d5b80,611e77bae313b5cff1083b89,
,,,,space,0.5179,,0,68,68,62,1,V, , , , ,space,1500,1.5,,001,2021-08-19_16h25.06.050,natb3,2021.2.3,Win32,60.0024001,611bdb3cfaa8b28f0ecd3f55,611e07ecdcc96256ae8d5b80,611e77bae313b5cff1083b89,
,,,,space,0.4169,,0,69,69,59,1,Z, , , , ,space,2000,2,,001,2021-08-19_16h25.06.050,natb3,2021.2.3,Win32,60.0024001,611bdb3cfaa8b28f0ecd3f55,611e07ecdcc96256ae8d5b80,611e77bae313b5cff1083b89,
,,,,space,0.4669,,0,70,70,128,1,D, , , , ,space,2500,2.5,,001,2021-08-19_16h25.06.050,natb3,2021.2.3,Win32,60.0024001,611bdb3cfaa8b28f0ecd3f55,611e07ecdcc96256ae8d5b80,611e77bae313b5cff1083b89,
,,,,space,0.4189,,0,71,71,198,1,H, , , , ,space,2500,2.5,,001,2021-08-19_16h25.06.050,natb3,2021.2.3,Win32,60.0024001,611bdb3cfaa8b28f0ecd3f55,611e07ecdcc96256ae8d5b80,611e77bae313b5cff1083b89,
,,,,,,,0,72,72,179,1,X, ,9, ,2,,1500,1.5,,001,2021-08-19_16h25.06.050,natb3,2021.2.3,Win32,60.0024001,611bdb3cfaa8b28f0ecd3f55,611e07ecdcc96256ae8d5b80,611e77bae313b5cff1083b89,
,,,,space,0.4691,,0,73,73,152,1,U, , , , ,space,2000,2,,001,2021-08-19_16h25.06.050,natb3,2021.2.3,Win32,60.0024001,611bdb3cfaa8b28f0ecd3f55,611e07ecdcc96256ae8d5b80,611e77bae313b5cff1083b89,
,,,,,,,0,74,74,12,1,X, , , , ,,1500,1.5,,001,2021-08-19_16h25.06.050,natb3,2021.2.3,Win32,60.0024001,611bdb3cfaa8b28f0ecd3f55,611e07ecdcc96256ae8d5b80,611e77bae313b5cff1083b89,
,,,,space,0.4503,,0,75,75,154,1,I, , , , ,space,2500,2.5,,001,2021-08-19_16h25.06.050,natb3,2021.2.3,Win32,60.0024001,611bdb3cfaa8b28f0ecd3f55,611e07ecdcc96256ae8d5b80,611e77bae313b5cff1083b89,
,,,,space,0.4005,,0,76,76,208,1,B, , , , ,space,1500,1.5,,001,2021-08-19_16h25.06.050,natb3,2021.2.3,Win32,60.0024001,611bdb3cfaa8b28f0ecd3f55,611e07ecdcc96256ae8d5b80,611e77bae313b5cff1083b89,
,,,,,,,0,77,77,46,1,X, , , , ,,2000,2,,001,2021-08-19_16h25.06.050,natb3,2021.2.3,Win32,60.0024001,611bdb3cfaa8b28f0ecd3f55,611e07ecdcc96256ae8d5b80,611e77bae313b5cff1083b89,
,,,,,,,0,78,78,203,1,X, , , , ,,2500,2.5,,001,2021-08-19_16h25.06.050,natb3,2021.2.3,Win32,60.0024001,611bdb3cfaa8b28f0ecd3f55,611e07ecdcc96256ae8d5b80,611e77bae313b5cff1083b89,
,,,,space,0.4002,,0,79,79,81,1,S, , , , ,space,2000,2,,001,2021-08-19_16h25.06.050,natb3,2021.2.3,Win32,60.0024001,611bdb3cfaa8b28f0ecd3f55,611e07ecdcc96256ae8d5b80,611e77bae313b5cff1083b89,
,,,,,,,0,80,80,287,1,X, ,2, ,9,,2000,2,,001,2021-08-19_16h25.06.050,natb3,2021.2.3,Win32,60.0024001,611bdb3cfaa8b28f0ecd3f55,611e07ecdcc96256ae8d5b80,611e77bae313b5cff1083b89,
,,,,space,0.5671,,0,81,81,9,1,I, , , , ,space,1500,1.5,,001,2021-08-19_16h25.06.050,natb3,2021.2.3,Win32,60.0024001,611bdb3cfaa8b28f0ecd3f55,611e07ecdcc96256ae8d5b80,611e77bae313b5cff1083b89,
,,,,space,0.5575,,0,82,82,117,1,T, , , , ,space,2500,2.5,,001,2021-08-19_16h25.06.050,natb3,2021.2.3,Win32,60.0024001,611bdb3cfaa8b28f0ecd3f55,611e07ecdcc96256ae8d5b80,611e77bae313b5cff1083b89,
,,,,,,,0,83,83,299,1,X, , , , ,,2500,2.5,,001,2021-08-19_16h25.06.050,natb3,2021.2.3,Win32,60.0024001,611bdb3cfaa8b28f0ecd3f55,611e07ecdcc96256ae8d5b80,611e77bae313b5cff1083b89,
,,,,space,0.45,,0,84,84,49,1,S, , , , ,space,1500,1.5,,001,2021-08-19_16h25.06.050,natb3,2021.2.3,Win32,60.0024001,611bdb3cfaa8b28f0ecd3f55,611e07ecdcc96256ae8d5b80,611e77bae313b5cff1083b89,
,,,,space,0.4625,,0,85,85,238,1,D, , , , ,space,1500,1.5,,001,2021-08-19_16h25.06.050,natb3,2021.2.3,Win32,60.0024001,611bdb3cfaa8b28f0ecd3f55,611e07ecdcc96256ae8d5b80,611e77bae313b5cff1083b89,
,,,,space,0.5112,,0,86,86,108,1,Y, , , , ,space,2500,2.5,,001,2021-08-19_16h25.06.050,natb3,2021.2.3,Win32,60.0024001,611bdb3cfaa8b28f0ecd3f55,611e07ecdcc96256ae8d5b80,611e77bae313b5cff1083b89,
,,,,space,0.3669,,0,87,87,293,1,R, , , , ,space,2500,2.5,,001,2021-08-19_16h25.06.050,natb3,2021.2.3,Win32,60.0024001,611bdb3cfaa8b28f0ecd3f55,611e07ecdcc96256ae8d5b80,611e77bae313b5cff1083b89,
,,,,,,,0,88,88,4,1,X, , , , ,,2000,2,,001,2021-08-19_16h25.06.050,natb3,2021.2.3,Win32,60.0024001,611bdb3cfaa8b28f0ecd3f55,611e07ecdcc96256ae8d5b80,611e77bae313b5cff1083b89,
,,,,space,0.4836,,0,89,89,37,1,E, , , , ,space,2500,2.5,,001,2021-08-19_16h25.06.050,natb3,2021.2.3,Win32,60.0024001,611bdb3cfaa8b28f0ecd3f55,611e07ecdcc96256ae8d5b80,611e77bae313b5cff1083b89,
,,,,space,0.4047,,0,90,90,214,1,W, , , , ,space,2000,2,,001,2021-08-19_16h25.06.050,natb3,2021.2.3,Win32,60.0024001,611bdb3cfaa8b28f0ecd3f55,611e07ecdcc96256ae8d5b80,611e77bae313b5cff1083b89,
,,,,,,,0,91,91,23,1,X,1, ,5, ,,2000,2,,001,2021-08-19_16h25.06.050,natb3,2021.2.3,Win32,60.0024001,611bdb3cfaa8b28f0ecd3f55,611e07ecdcc96256ae8d5b80,611e77bae313b5cff1083b89,
,,,,space,0.5002,,0,92,92,45,1,O, , , , ,space,2000,2,,001,2021-08-19_16h25.06.050,natb3,2021.2.3,Win32,60.0024001,611bdb3cfaa8b28f0ecd3f55,611e07ecdcc96256ae8d5b80,611e77bae313b5cff1083b89,
,,,,space,0.517,,0,93,93,189,1,O, , , , ,space,1500,1.5,,001,2021-08-19_16h25.06.050,natb3,2021.2.3,Win32,60.0024001,611bdb3cfaa8b28f0ecd3f55,611e07ecdcc96256ae8d5b80,611e77bae313b5cff1083b89,
,,,,space,0.5052,,0,94,94,254,1,M, , , , ,space,1500,1.5,,001,2021-08-19_16h25.06.050,natb3,2021.2.3,Win32,60.0024001,611bdb3cfaa8b28f0ecd3f55,611e07ecdcc96256ae8d5b80,611e77bae313b5cff1083b89,
,,,,,,,0,95,95,82,1,X,4,6,1,7,,2000,2,,001,2021-08-19_16h25.06.050,natb3,2021.2.3,Win32,60.0024001,611bdb3cfaa8b28f0ecd3f55,611e07ecdcc96256ae8d5b80,611e77bae313b5cff1083b89,
,,,,space,0.8173,,0,96,96,320,1,B, , , , ,space,1500,1.5,,001,2021-08-19_16h25.06.050,natb3,2021.2.3,Win32,60.0024001,611bdb3cfaa8b28f0ecd3f55,611e07ecdcc96256ae8d5b80,611e77bae313b5cff1083b89,
,,,,space,0.3504,,0,97,97,285,1,B, , , , ,space,1500,1.5,,001,2021-08-19_16h25.06.050,natb3,2021.2.3,Win32,60.0024001,611bdb3cfaa8b28f0ecd3f55,611e07ecdcc96256ae8d5b80,611e77bae313b5cff1083b89,
,,,,space,0.4436,,0,98,98,261,1,T, , , , ,space,2000,2,,001,2021-08-19_16h25.06.050,natb3,2021.2.3,Win32,60.0024001,611bdb3cfaa8b28f0ecd3f55,611e07ecdcc96256ae8d5b80,611e77bae313b5cff1083b89,
,,,,space,0.4171,,0,99,99,319,1,V, , , , ,space,2000,2,,001,2021-08-19_16h25.06.050,natb3,2021.2.3,Win32,60.0024001,611bdb3cfaa8b28f0ecd3f55,611e07ecdcc96256ae8d5b80,611e77bae313b5cff1083b89,
,,,,,,,0,100,100,191,1,X,1, ,3,4,,2500,2.5,,001,2021-08-19_16h25.06.050,natb3,2021.2.3,Win32,60.0024001,611bdb3cfaa8b28f0ecd3f55,611e07ecdcc96256ae8d5b80,611e77bae313b5cff1083b89,
,,,,space,0.4227,,0,101,101,30,1,N, , , , ,space,2500,2.5,,001,2021-08-19_16h25.06.050,natb3,2021.2.3,Win32,60.0024001,611bdb3cfaa8b28f0ecd3f55,611e07ecdcc96256ae8d5b80,611e77bae313b5cff1083b89,
,,,,space,0.4502,,0,102,102,156,1,P, , , , ,space,1500,1.5,,001,2021-08-19_16h25.06.050,natb3,2021.2.3,Win32,60.0024001,611bdb3cfaa8b28f0ecd3f55,611e07ecdcc96256ae8d5b80,611e77bae313b5cff1083b89,
,,,,space,0.4668,,0,103,103,68,1,W, , , , ,space,2500,2.5,,001,2021-08-19_16h25.06.050,natb3,2021.2.3,Win32,60.0024001,611bdb3cfaa8b28f0ecd3f55,611e07ecdcc96256ae8d5b80,611e77bae313b5cff1083b89,
,,,,space,0.4949,,0,104,104,63,1,B, , , , ,space,2000,2,,001,2021-08-19_16h25.06.050,natb3,2021.2.3,Win32,60.0024001,611bdb3cfaa8b28f0ecd3f55,611e07ecdcc96256ae8d5b80,611e77bae313b5cff1083b89,
,,,,space,0.4173,,0,105,105,137,1,C, , , , ,space,2500,2.5,,001,2021-08-19_16h25.06.050,natb3,2021.2.3,Win32,60.0024001,611bdb3cfaa8b28f0ecd3f55,611e07ecdcc96256ae8d5b80,611e77bae313b5cff1083b89,
,,,,space,0.3208,,0,106,106,231,1,I, , , , ,space,2500,2.5,,001,2021-08-19_16h25.06.050,natb3,2021.2.3,Win32,60.0024001,611bdb3cfaa8b28f0ecd3f55,611e07ecdcc96256ae8d5b80,611e77bae313b5cff1083b89,
,,,,space,0.3008,,0,107,107,243,1,X, , , , ,,2500,2.5,,001,2021-08-19_16h25.06.050,natb3,2021.2.3,Win32,60.0024001,611bdb3cfaa8b28f0ecd3f55,611e07ecdcc96256ae8d5b80,611e77bae313b5cff1083b89,
,,,,space,0.4219,,0,108,108,216,1,R, , , , ,space,1500,1.5,,001,2021-08-19_16h25.06.050,natb3,2021.2.3,Win32,60.0024001,611bdb3cfaa8b28f0ecd3f55,611e07ecdcc96256ae8d5b80,611e77bae313b5cff1083b89,
,,,,space,0.4922,,0,109,109,326,1,W, , , , ,space,2000,2,,001,2021-08-19_16h25.06.050,natb3,2021.2.3,Win32,60.0024001,611bdb3cfaa8b28f0ecd3f55,611e07ecdcc96256ae8d5b80,611e77bae313b5cff1083b89,
,,,,space,0.4001,,0,110,110,142,1,N, , , , ,space,2500,2.5,,001,2021-08-19_16h25.06.050,natb3,2021.2.3,Win32,60.0024001,611bdb3cfaa8b28f0ecd3f55,611e07ecdcc96256ae8d5b80,611e77bae313b5cff1083b89,
,,,,,,,0,111,111,248,1,X, ,1,5, ,,1500,1.5,,001,2021-08-19_16h25.06.050,natb3,2021.2.3,Win32,60.0024001,611bdb3cfaa8b28f0ecd3f55,611e07ecdcc96256ae8d5b80,611e77bae313b5cff1083b89,
,,,,,,,0,112,112,31,1,X, , , , ,,1500,1.5,,001,2021-08-19_16h25.06.050,natb3,2021.2.3,Win32,60.0024001,611bdb3cfaa8b28f0ecd3f55,611e07ecdcc96256ae8d5b80,611e77bae313b5cff1083b89,
,,,,space,0.467,,0,113,113,220,1,U, , , , ,space,2500,2.5,,001,2021-08-19_16h25.06.050,natb3,2021.2.3,Win32,60.0024001,611bdb3cfaa8b28f0ecd3f55,611e07ecdcc96256ae8d5b80,611e77bae313b5cff1083b89,
,,,,space,0.5381,,0,114,114,22,1,K, , , , ,space,2000,2,,001,2021-08-19_16h25.06.050,natb3,2021.2.3,Win32,60.0024001,611bdb3cfaa8b28f0ecd3f55,611e07ecdcc96256ae8d5b80,611e77bae313b5cff1083b89,
,,,,,,,0,115,115,325,1,X, , , , ,,2500,2.5,,001,2021-08-19_16h25.06.050,natb3,2021.2.3,Win32,60.0024001,611bdb3cfaa8b28f0ecd3f55,611e07ecdcc96256ae8d5b80,611e77bae313b5cff1083b89,
,,,,space,0.5003,,0,116,116,36,1,W, , , , ,space,2000,2,,001,2021-08-19_16h25.06.050,natb3,2021.2.3,Win32,60.0024001,611bdb3cfaa8b28f0ecd3f55,611e07ecdcc96256ae8d5b80,611e77bae313b5cff1083b89,
,,,,space,0.4359,,0,117,117,184,1,T, , , , ,space,2000,2,,001,2021-08-19_16h25.06.050,natb3,2021.2.3,Win32,60.0024001,611bdb3cfaa8b28f0ecd3f55,611e07ecdcc96256ae8d5b80,611e77bae313b5cff1083b89,
,,,,,,,0,118,118,218,1,X,1,3, ,8,,1500,1.5,,001,2021-08-19_16h25.06.050,natb3,2021.2.3,Win32,60.0024001,611bdb3cfaa8b28f0ecd3f55,611e07ecdcc96256ae8d5b80,611e77bae313b5cff1083b89,
,,,,space,0.5371,,0,119,119,275,1,G, , , , ,space,1500,1.5,,001,2021-08-19_16h25.06.050,natb3,2021.2.3,Win32,60.0024001,611bdb3cfaa8b28f0ecd3f55,611e07ecdcc96256ae8d5b80,611e77bae313b5cff1083b89,
,,,,space,0.8272,,0,120,120,147,1,E, , , , ,space,2000,2,,001,2021-08-19_16h25.06.050,natb3,2021.2.3,Win32,60.0024001,611bdb3cfaa8b28f0ecd3f55,611e07ecdcc96256ae8d5b80,611e77bae313b5cff1083b89,
,,,,space,0.5003,,0,121,121,155,1,O, , , , ,space,1500,1.5,,001,2021-08-19_16h25.06.050,natb3,2021.2.3,Win32,60.0024001,611bdb3cfaa8b28f0ecd3f55,611e07ecdcc96256ae8d5b80,611e77bae313b5cff1083b89,
,,,,space,0.3744,,0,122,122,97,1,B, , , , ,space,2500,2.5,,001,2021-08-19_16h25.06.050,natb3,2021.2.3,Win32,60.0024001,611bdb3cfaa8b28f0ecd3f55,611e07ecdcc96256ae8d5b80,611e77bae313b5cff1083b89,
,,,,space,0.4002,,0,123,123,250,1,V, , , , ,space,2000,2,,001,2021-08-19_16h25.06.050,natb3,2021.2.3,Win32,60.0024001,611bdb3cfaa8b28f0ecd3f55,611e07ecdcc96256ae8d5b80,611e77bae313b5cff1083b89,
,,,,space,0.5254,,0,124,124,257,1,W, , , , ,space,2000,2,,001,2021-08-19_16h25.06.050,natb3,2021.2.3,Win32,60.0024001,611bdb3cfaa8b28f0ecd3f55,611e07ecdcc96256ae8d5b80,611e77bae313b5cff1083b89,
,,,,space,0.4041,,0,125,125,140,1,B, , , , ,space,2500,2.5,,001,2021-08-19_16h25.06.050,natb3,2021.2.3,Win32,60.0024001,611bdb3cfaa8b28f0ecd3f55,611e07ecdcc96256ae8d5b80,611e77bae313b5cff1083b89,
,,,,space,0.417,,0,126,126,194,1,D, , , , ,space,2000,2,,001,2021-08-19_16h25.06.050,natb3,2021.2.3,Win32,60.0024001,611bdb3cfaa8b28f0ecd3f55,611e07ecdcc96256ae8d5b80,611e77bae313b5cff1083b89,
,,,,space,0.3835,,0,127,127,13,1,A, , , , ,space,2000,2,,001,2021-08-19_16h25.06.050,natb3,2021.2.3,Win32,60.0024001,611bdb3cfaa8b28f0ecd3f55,611e07ecdcc96256ae8d5b80,611e77bae313b5cff1083b89,
,,,,space,0.4067,,0,128,128,52,1,F, , , , ,space,1500,1.5,,001,2021-08-19_16h25.06.050,natb3,2021.2.3,Win32,60.0024001,611bdb3cfaa8b28f0ecd3f55,611e07ecdcc96256ae8d5b80,611e77bae313b5cff1083b89,
,,,,space,0.4262,,0,129,129,221,1,I, , , , ,space,2500,2.5,,001,2021-08-19_16h25.06.050,natb3,2021.2.3,Win32,60.0024001,611bdb3cfaa8b28f0ecd3f55,611e07ecdcc96256ae8d5b80,611e77bae313b5cff1083b89,
,,,,space,0.3836,,0,130,130,240,1,F, , , , ,space,2500,2.5,,001,2021-08-19_16h25.06.050,natb3,2021.2.3,Win32,60.0024001,611bdb3cfaa8b28f0ecd3f55,611e07ecdcc96256ae8d5b80,611e77bae313b5cff1083b89,
,,,,space,0.3671,,0,131,131,104,1,E, , , , ,space,2000,2,,001,2021-08-19_16h25.06.050,natb3,2021.2.3,Win32,60.0024001,611bdb3cfaa8b28f0ecd3f55,611e07ecdcc96256ae8d5b80,611e77bae313b5cff1083b89,
,,,,,,,0,132,132,162,1,X,1,6, ,2,,1500,1.5,,001,2021-08-19_16h25.06.050,natb3,2021.2.3,Win32,60.0024001,611bdb3cfaa8b28f0ecd3f55,611e07ecdcc96256ae8d5b80,611e77bae313b5cff1083b89,
,,,,space,0.4681,,0,133,133,181,1,E, , , , ,space,1500,1.5,,001,2021-08-19_16h25.06.050,natb3,2021.2.3,Win32,60.0024001,611bdb3cfaa8b28f0ecd3f55,611e07ecdcc96256ae8d5b80,611e77bae313b5cff1083b89,
,,,,space,0.4925,,0,134,134,197,1,G, , , , ,space,2500,2.5,,001,2021-08-19_16h25.06.050,natb3,2021.2.3,Win32,60.0024001,611bdb3cfaa8b28f0ecd3f55,611e07ecdcc96256ae8d5b80,611e77bae313b5cff1083b89,
,,,,,,,0,135,135,322,1,X, , ,1,6,,2000,2,,001,2021-08-19_16h25.06.050,natb3,2021.2.3,Win32,60.0024001,611bdb3cfaa8b28f0ecd3f55,611e07ecdcc96256ae8d5b80,611e77bae313b5cff1083b89,
,,,,space,0.4205,,0,136,136,269,1,A, , , , ,space,2500,2.5,,001,2021-08-19_16h25.06.050,natb3,2021.2.3,Win32,60.0024001,611bdb3cfaa8b28f0ecd3f55,611e07ecdcc96256ae8d5b80,611e77bae313b5cff1083b89,
,,,,,,,0,137,137,89,1,X,3, , , ,,2000,2,,001,2021-08-19_16h25.06.050,natb3,2021.2.3,Win32,60.0024001,611bdb3cfaa8b28f0ecd3f55,611e07ecdcc96256ae8d5b80,611e77bae313b5cff1083b89,
,,,,,,,0,138,138,54,1,X, , , , ,,2000,2,,001,2021-08-19_16h25.06.050,natb3,2021.2.3,Win32,60.0024001,611bdb3cfaa8b28f0ecd3f55,611e07ecdcc96256ae8d5b80,611e77bae313b5cff1083b89,
,,,,space,0.5507,,0,139,139,113,1,W, , , , ,space,2500,2.5,,001,2021-08-19_16h25.06.050,natb3,2021.2.3,Win32,60.0024001,611bdb3cfaa8b28f0ecd3f55,611e07ecdcc96256ae8d5b80,611e77bae313b5cff1083b89,
,,,,space,0.4169,,0,140,140,169,1,L, , , , ,space,2500,2.5,,001,2021-08-19_16h25.06.050,natb3,2021.2.3,Win32,60.0024001,611bdb3cfaa8b28f0ecd3f55,611e07ecdcc96256ae8d5b80,611e77bae313b5cff1083b89,
,,,,space,0.4351,,0,141,141,278,1,J, , , , ,space,2000,2,,001,2021-08-19_16h25.06.050,natb3,2021.2.3,Win32,60.0024001,611bdb3cfaa8b28f0ecd3f55,611e07ecdcc96256ae8d5b80,611e77bae313b5cff1083b89,
,,,,space,0.3835,,0,142,142,34,1,Q, , , , ,space,2500,2.5,,001,2021-08-19_16h25.06.050,natb3,2021.2.3,Win32,60.0024001,611bdb3cfaa8b28f0ecd3f55,611e07ecdcc96256ae8d5b80,611e77bae313b5cff1083b89,
,,,,space,0.3838,,0,143,143,103,1,W, , , , ,space,2000,2,,001,2021-08-19_16h25.06.050,natb3,2021.2.3,Win32,60.0024001,611bdb3cfaa8b28f0ecd3f55,611e07ecdcc96256ae8d5b80,611e77bae313b5cff1083b89,
,,,,space,0.401,,0,144,144,309,1,H, , , , ,space,2500,2.5,,001,2021-08-19_16h25.06.050,natb3,2021.2.3,Win32,60.0024001,611bdb3cfaa8b28f0ecd3f55,611e07ecdcc96256ae8d5b80,611e77bae313b5cff1083b89,
,,,,space,0.3406,,0,145,145,92,1,Z, , , , ,space,1500,1.5,,001,2021-08-19_16h25.06.050,natb3,2021.2.3,Win32,60.0024001,611bdb3cfaa8b28f0ecd3f55,611e07ecdcc96256ae8d5b80,611e77bae313b5cff1083b89,
,,,,space,0.4031,,0,146,146,262,1,Y, , , , ,space,2500,2.5,,001,2021-08-19_16h25.06.050,natb3,2021.2.3,Win32,60.0024001,611bdb3cfaa8b28f0ecd3f55,611e07ecdcc96256ae8d5b80,611e77bae313b5cff1083b89,
,,,,space,0.4168,,0,147,147,210,1,M, , , , ,space,1500,1.5,,001,2021-08-19_16h25.06.050,natb3,2021.2.3,Win32,60.0024001,611bdb3cfaa8b28f0ecd3f55,611e07ecdcc96256ae8d5b80,611e77bae313b5cff1083b89,
,,,,space,0.3837,,0,148,148,143,1,M, , , , ,space,2500,2.5,,001,2021-08-19_16h25.06.050,natb3,2021.2.3,Win32,60.0024001,611bdb3cfaa8b28f0ecd3f55,611e07ecdcc96256ae8d5b80,611e77bae313b5cff1083b89,
,,,,space,0.3836,,0,149,149,333,1,I, , , , ,space,1500,1.5,,001,2021-08-19_16h25.06.050,natb3,2021.2.3,Win32,60.0024001,611bdb3cfaa8b28f0ecd3f55,611e07ecdcc96256ae8d5b80,611e77bae313b5cff1083b89,
,,,,,,,0,150,150,318,1,X, , , , ,,1500,1.5,,001,2021-08-19_16h25.06.050,natb3,2021.2.3,Win32,60.0024001,611bdb3cfaa8b28f0ecd3f55,611e07ecdcc96256ae8d5b80,611e77bae313b5cff1083b89,
,,,,space,0.4669,,0,151,151,56,1,J, , , , ,space,1500,1.5,,001,2021-08-19_16h25.06.050,natb3,2021.2.3,Win32,60.0024001,611bdb3cfaa8b28f0ecd3f55,611e07ecdcc96256ae8d5b80,611e77bae313b5cff1083b89,
,,,,,,,0,152,152,7,1,X, , , , ,,1500,1.5,,001,2021-08-19_16h25.06.050,natb3,2021.2.3,Win32,60.0024001,611bdb3cfaa8b28f0ecd3f55,611e07ecdcc96256ae8d5b80,611e77bae313b5cff1083b89,
,,,,space,0.3697,,0,153,153,21,1,J, , , , ,space,1500,1.5,,001,2021-08-19_16h25.06.050,natb3,2021.2.3,Win32,60.0024001,611bdb3cfaa8b28f0ecd3f55,611e07ecdcc96256ae8d5b80,611e77bae313b5cff1083b89,
,,,,space,0.3835,,0,154,154,330,1,T, , , , ,space,2500,2.5,,001,2021-08-19_16h25.06.050,natb3,2021.2.3,Win32,60.0024001,611bdb3cfaa8b28f0ecd3f55,611e07ecdcc96256ae8d5b80,611e77bae313b5cff1083b89,
,,,,,,,0,155,155,252,1,X,3, ,6,9,,2000,2,,001,2021-08-19_16h25.06.050,natb3,2021.2.3,Win32,60.0024001,611bdb3cfaa8b28f0ecd3f55,611e07ecdcc96256ae8d5b80,611e77bae313b5cff1083b89,
,,,,space,0.6023,,0,156,156,88,1,J, , , , ,space,2500,2.5,,001,2021-08-19_16h25.06.050,natb3,2021.2.3,Win32,60.0024001,611bdb3cfaa8b28f0ecd3f55,611e07ecdcc96256ae8d5b80,611e77bae313b5cff1083b89,
,,,,,,,0,157,157,236,1,X,3, ,4,7,,2500,2.5,,001,2021-08-19_16h25.06.050,natb3,2021.2.3,Win32,60.0024001,611bdb3cfaa8b28f0ecd3f55,611e07ecdcc96256ae8d5b80,611e77bae313b5cff1083b89,
,,,,space,0.4005,,0,158,158,307,1,F, , , , ,space,2500,2.5,,001,2021-08-19_16h25.06.050,natb3,2021.2.3,Win32,60.0024001,611bdb3cfaa8b28f0ecd3f55,611e07ecdcc96256ae8d5b80,611e77bae313b5cff1083b89,
,,,,,,,0,159,159,187,1,X, ,3,7,4,,1500,1.5,,001,2021-08-19_16h25.06.050,natb3,2021.2.3,Win32,60.0024001,611bdb3cfaa8b28f0ecd3f55,611e07ecdcc96256ae8d5b80,611e77bae313b5cff1083b89,
,,,,,,,0,160,160,259,1,X,8, , ,3,,2500,2.5,,001,2021-08-19_16h25.06.050,natb3,2021.2.3,Win32,60.0024001,611bdb3cfaa8b28f0ecd3f55,611e07ecdcc96256ae8d5b80,611e77bae313b5cff1083b89,
,,,,space,0.4504,,0,161,161,219,1,Y, , , , ,space,2000,2,,001,2021-08-19_16h25.06.050,natb3,2021.2.3,Win32,60.0024001,611bdb3cfaa8b28f0ecd3f55,611e07ecdcc96256ae8d5b80,611e77bae313b5cff1083b89,
,,,,space,0.4571,,0,162,162,266,1,O, , , , ,space,1500,1.5,,001,2021-08-19_16h25.06.050,natb3,2021.2.3,Win32,60.0024001,611bdb3cfaa8b28f0ecd3f55,611e07ecdcc96256ae8d5b80,611e77bae313b5cff1083b89,
,,,,space,0.417,,0,163,163,90,1,K, , , , ,space,2000,2,,001,2021-08-19_16h25.06.050,natb3,2021.2.3,Win32,60.0024001,611bdb3cfaa8b28f0ecd3f55,611e07ecdcc96256ae8d5b80,611e77bae313b5cff1083b89,
,,,,space,0.4535,,0,164,164,192,1,A, , , , ,space,2000,2,,001,2021-08-19_16h25.06.050,natb3,2021.2.3,Win32,60.0024001,611bdb3cfaa8b28f0ecd3f55,611e07ecdcc96256ae8d5b80,611e77bae313b5cff1083b89,
,,,,,,,0,165,165,15,1,X, , , , ,,1500,1.5,,001,2021-08-19_16h25.06.050,natb3,2021.2.3,Win32,60.0024001,611bdb3cfaa8b28f0ecd3f55,611e07ecdcc96256ae8d5b80,611e77bae313b5cff1083b89,
,,,,space,0.4167,,0,166,166,172,1,C, , , , ,space,1500,1.5,,001,2021-08-19_16h25.06.050,natb3,2021.2.3,Win32,60.0024001,611bdb3cfaa8b28f0ecd3f55,611e07ecdcc96256ae8d5b80,611e77bae313b5cff1083b89,
,,,,space,0.4002,space,0,167,167,75,1,U, , , , ,space,1500,1.5,,001,2021-08-19_16h25.06.050,natb3,2021.2.3,Win32,60.0024001,611bdb3cfaa8b28f0ecd3f55,611e07ecdcc96256ae8d5b80,611e77bae313b5cff1083b89,7.3662
,,,,space,0.4219,,0,168,168,91,1,L, , , , ,space,2000,2,,001,2021-08-19_16h25.06.050,natb3,2021.2.3,Win32,60.0024001,611bdb3cfaa8b28f0ecd3f55,611e07ecdcc96256ae8d5b80,611e77bae313b5cff1083b89,
,,,,,,,0,169,169,282,1,X, , , , ,,2500,2.5,,001,2021-08-19_16h25.06.050,natb3,2021.2.3,Win32,60.0024001,611bdb3cfaa8b28f0ecd3f55,611e07ecdcc96256ae8d5b80,611e77bae313b5cff1083b89,
,,,,,,,0,170,170,153,1,X,4,7, ,6,,2000,2,,001,2021-08-19_16h25.06.050,natb3,2021.2.3,Win32,60.0024001,611bdb3cfaa8b28f0ecd3f55,611e07ecdcc96256ae8d5b80,611e77bae313b5cff1083b89,
,,,,space,0.5668,,0,171,171,235,1,A, , , , ,space,1500,1.5,,001,2021-08-19_16h25.06.050,natb3,2021.2.3,Win32,60.0024001,611bdb3cfaa8b28f0ecd3f55,611e07ecdcc96256ae8d5b80,611e77bae313b5cff1083b89,
,,,,space,0.4836,,0,172,172,303,1,A, , , , ,space,2000,2,,001,2021-08-19_16h25.06.050,natb3,2021.2.3,Win32,60.0024001,611bdb3cfaa8b28f0ecd3f55,611e07ecdcc96256ae8d5b80,611e77bae313b5cff1083b89,
,,,,space,0.4334,,0,173,173,106,1,T, , , , ,space,1500,1.5,,001,2021-08-19_16h25.06.050,natb3,2021.2.3,Win32,60.0024001,611bdb3cfaa8b28f0ecd3f55,611e07ecdcc96256ae8d5b80,611e77bae313b5cff1083b89,
,,,,space,0.4504,,0,174,174,267,1,P, , , , ,space,2000,2,,001,2021-08-19_16h25.06.050,natb3,2021.2.3,Win32,60.0024001,611bdb3cfaa8b28f0ecd3f55,611e07ecdcc96256ae8d5b80,611e77bae313b5cff1083b89,
,,,,space,0.4507,,0,175,175,286,1,N, , , , ,space,1500,1.5,,001,2021-08-19_16h25.06.050,natb3,2021.2.3,Win32,60.0024001,611bdb3cfaa8b28f0ecd3f55,611e07ecdcc96256ae8d5b80,611e77bae313b5cff1083b89,
,,,,space,0.4212,,0,176,176,146,1,W, , , , ,space,1500,1.5,,001,2021-08-19_16h25.06.050,natb3,2021.2.3,Win32,60.0024001,611bdb3cfaa8b28f0ecd3f55,611e07ecdcc96256ae8d5b80,611e77bae313b5cff1083b89,
,,,,space,0.4003,,0,177,177,1,1,W, , , , ,space,2000,2,,001,2021-08-19_16h25.06.050,natb3,2021.2.3,Win32,60.0024001,611bdb3cfaa8b28f0ecd3f55,611e07ecdcc96256ae8d5b80,611e77bae313b5cff1083b89,
,,,,space,0.4176,,0,178,178,281,1,Z, , , , ,space,1500,1.5,,001,2021-08-19_16h25.06.050,natb3,2021.2.3,Win32,60.0024001,611bdb3cfaa8b28f0ecd3f55,611e07ecdcc96256ae8d5b80,611e77bae313b5cff1083b89,
,,,,space,0.3835,,0,179,179,314,1,L, , , , ,space,1500,1.5,,001,2021-08-19_16h25.06.050,natb3,2021.2.3,Win32,60.0024001,611bdb3cfaa8b28f0ecd3f55,611e07ecdcc96256ae8d5b80,611e77bae313b5cff1083b89,
,,,,space,0.47,,0,180,180,159,1,S, , , , ,space,2500,2.5,,001,2021-08-19_16h25.06.050,natb3,2021.2.3,Win32,60.0024001,611bdb3cfaa8b28f0ecd3f55,611e07ecdcc96256ae8d5b80,611e77bae313b5cff1083b89,
,,,,space,0.4166,,0,181,181,6,1,Y, , , , ,space,2500,2.5,,001,2021-08-19_16h25.06.050,natb3,2021.2.3,Win32,60.0024001,611bdb3cfaa8b28f0ecd3f55,611e07ecdcc96256ae8d5b80,611e77bae313b5cff1083b89,
,,,,space,0.4338,,0,182,182,119,1,Y, , , , ,space,2500,2.5,,001,2021-08-19_16h25.06.050,natb3,2021.2.3,Win32,60.0024001,611bdb3cfaa8b28f0ecd3f55,611e07ecdcc96256ae8d5b80,611e77bae313b5cff1083b89,
,,,,space,0.4502,,0,183,183,80,1,A, , , , ,space,2000,2,,001,2021-08-19_16h25.06.050,natb3,2021.2.3,Win32,60.0024001,611bdb3cfaa8b28f0ecd3f55,611e07ecdcc96256ae8d5b80,611e77bae313b5cff1083b89,
,,,,space,0.5848,,0,184,184,126,1,A, , , , ,space,2500,2.5,,001,2021-08-19_16h25.06.050,natb3,2021.2.3,Win32,60.0024001,611bdb3cfaa8b28f0ecd3f55,611e07ecdcc96256ae8d5b80,611e77bae313b5cff1083b89,
,,,,space,0.4668,,0,185,185,127,1,S, , , , ,space,2500,2.5,,001,2021-08-19_16h25.06.050,natb3,2021.2.3,Win32,60.0024001,611bdb3cfaa8b28f0ecd3f55,611e07ecdcc96256ae8d5b80,611e77bae313b5cff1083b89,
,,,,space,0.4209,,0,186,186,50,1,D, , , , ,space,1500,1.5,,001,2021-08-19_16h25.06.050,natb3,2021.2.3,Win32,60.0024001,611bdb3cfaa8b28f0ecd3f55,611e07ecdcc96256ae8d5b80,611e77bae313b5cff1083b89,
,,,,space,0.452,,0,187,187,256,1,Q, , , , ,space,2000,2,,001,2021-08-19_16h25.06.050,natb3,2021.2.3,Win32,60.0024001,611bdb3cfaa8b28f0ecd3f55,611e07ecdcc96256ae8d5b80,611e77bae313b5cff1083b89,
,,,,space,0.4003,,0,188,188,2,1,E, , , , ,space,2500,2.5,,001,2021-08-19_16h25.06.050,natb3,2021.2.3,Win32,60.0024001,611bdb3cfaa8b28f0ecd3f55,611e07ecdcc96256ae8d5b80,611e77bae313b5cff1083b89,
,,,,space,0.3687,,0,189,189,280,1,L, , , , ,space,1500,1.5,,001,2021-08-19_16h25.06.050,natb3,2021.2.3,Win32,60.0024001,611bdb3cfaa8b28f0ecd3f55,611e07ecdcc96256ae8d5b80,611e77bae313b5cff1083b89,
,,,,space,0.4055,,0,190,190,288,1,M, , , , ,space,1500,1.5,,001,2021-08-19_16h25.06.050,natb3,2021.2.3,Win32,60.0024001,611bdb3cfaa8b28f0ecd3f55,611e07ecdcc96256ae8d5b80,611e77bae313b5cff1083b89,
,,,,,,,0,191,191,207,1,X,9, ,2, ,,2500,2.5,,001,2021-08-19_16h25.06.050,natb3,2021.2.3,Win32,60.0024001,611bdb3cfaa8b28f0ecd3f55,611e07ecdcc96256ae8d5b80,611e77bae313b5cff1083b89,
,,,,space,0.4836,,0,192,192,246,1,L, , , , ,space,2500,2.5,,001,2021-08-19_16h25.06.050,natb3,2021.2.3,Win32,60.0024001,611bdb3cfaa8b28f0ecd3f55,611e07ecdcc96256ae8d5b80,611e77bae313b5cff1083b89,
,,,,space,0.4008,,0,193,193,332,1,U, , , , ,space,2000,2,,001,2021-08-19_16h25.06.050,natb3,2021.2.3,Win32,60.0024001,611bdb3cfaa8b28f0ecd3f55,611e07ecdcc96256ae8d5b80,611e77bae313b5cff1083b89,
,,,,space,0.4,,0,194,194,24,1,L, , , , ,space,2500,2.5,,001,2021-08-19_16h25.06.050,natb3,2021.2.3,Win32,60.0024001,611bdb3cfaa8b28f0ecd3f55,611e07ecdcc96256ae8d5b80,611e77bae313b5cff1083b89,
,,,,space,0.4168,,0,195,195,86,1,G, , , , ,space,2000,2,,001,2021-08-19_16h25.06.050,natb3,2021.2.3,Win32,60.0024001,611bdb3cfaa8b28f0ecd3f55,611e07ecdcc96256ae8d5b80,611e77bae313b5cff1083b89,
,,,,space,0.3669,,0,196,196,171,1,X, , , , ,,1500,1.5,,001,2021-08-19_16h25.06.050,natb3,2021.2.3,Win32,60.0024001,611bdb3cfaa8b28f0ecd3f55,611e07ecdcc96256ae8d5b80,611e77bae313b5cff1083b89,
,,,,space,0.5336,,0,197,197,99,1,N, , , , ,space,2500,2.5,,001,2021-08-19_16h25.06.050,natb3,2021.2.3,Win32,60.0024001,611bdb3cfaa8b28f0ecd3f55,611e07ecdcc96256ae8d5b80,611e77bae313b5cff1083b89,
,,,,space,0.4335,,0,198,198,227,1,T, , , , ,space,1500,1.5,,001,2021-08-19_16h25.06.050,natb3,2021.2.3,Win32,60.0024001,611bdb3cfaa8b28f0ecd3f55,611e07ecdcc96256ae8d5b80,611e77bae313b5cff1083b89,
,,,,space,0.4505,,0,199,199,105,1,R, , , , ,space,2500,2.5,,001,2021-08-19_16h25.06.050,natb3,2021.2.3,Win32,60.0024001,611bdb3cfaa8b28f0ecd3f55,611e07ecdcc96256ae8d5b80,611e77bae313b5cff1083b89,
,,,,space,0.5001,,0,200,200,167,1,K, , , , ,space,1500,1.5,,001,2021-08-19_16h25.06.050,natb3,2021.2.3,Win32,60.0024001,611bdb3cfaa8b28f0ecd3f55,611e07ecdcc96256ae8d5b80,611e77bae313b5cff1083b89,
,,,,space,0.4878,,0,201,201,274,1,F, , , , ,space,2000,2,,001,2021-08-19_16h25.06.050,natb3,2021.2.3,Win32,60.0024001,611bdb3cfaa8b28f0ecd3f55,611e07ecdcc96256ae8d5b80,611e77bae313b5cff1083b89,
,,,,space,0.4669,,0,202,202,296,1,Y, , , , ,space,2500,2.5,,001,2021-08-19_16h25.06.050,natb3,2021.2.3,Win32,60.0024001,611bdb3cfaa8b28f0ecd3f55,611e07ecdcc96256ae8d5b80,611e77bae313b5cff1083b89,
,,,,space,0.4513,,0,203,203,234,1,P, , , , ,space,2000,2,,001,2021-08-19_16h25.06.050,natb3,2021.2.3,Win32,60.0024001,611bdb3cfaa8b28f0ecd3f55,611e07ecdcc96256ae8d5b80,611e77bae313b5cff1083b89,
,,,,,,,0,204,204,133,1,X, ,4, ,6,,2500,2.5,,001,2021-08-19_16h25.06.050,natb3,2021.2.3,Win32,60.0024001,611bdb3cfaa8b28f0ecd3f55,611e07ecdcc96256ae8d5b80,611e77bae313b5cff1083b89,
,,,,space,0.4525,,0,205,205,272,1,D, , , , ,space,2000,2,,001,2021-08-19_16h25.06.050,natb3,2021.2.3,Win32,60.0024001,611bdb3cfaa8b28f0ecd3f55,611e07ecdcc96256ae8d5b80,611e77bae313b5cff1083b89,
,,,,,,,0,206,206,302,1,X, , , , ,,2000,2,,001,2021-08-19_16h25.06.050,natb3,2021.2.3,Win32,60.0024001,611bdb3cfaa8b28f0ecd3f55,611e07ecdcc96256ae8d5b80,611e77bae313b5cff1083b89,
,,,,space,0.5169,,0,207,207,290,1,W, , , , ,space,1500,1.5,,001,2021-08-19_16h25.06.050,natb3,2021.2.3,Win32,60.0024001,611bdb3cfaa8b28f0ecd3f55,611e07ecdcc96256ae8d5b80,611e77bae313b5cff1083b89,
,,,,space,0.5001,,0,208,208,242,1,H, , , , ,space,2500,2.5,,001,2021-08-19_16h25.06.050,natb3,2021.2.3,Win32,60.0024001,611bdb3cfaa8b28f0ecd3f55,611e07ecdcc96256ae8d5b80,611e77bae313b5cff1083b89,
,,,,,,,0,209,209,51,1,X,7,5,8, ,,1500,1.5,,001,2021-08-19_16h25.06.050,natb3,2021.2.3,Win32,60.0024001,611bdb3cfaa8b28f0ecd3f55,611e07ecdcc96256ae8d5b80,611e77bae313b5cff1083b89,
,,,,space,0.5836,,0,210,210,67,1,Q, , , , ,space,2000,2,,001,2021-08-19_16h25.06.050,natb3,2021.2.3,Win32,60.0024001,611bdb3cfaa8b28f0ecd3f55,611e07ecdcc96256ae8d5b80,611e77bae313b5cff1083b89,
,,,,space,0.4002,,0,211,211,25,1,Z, , , , ,space,2500,2.5,,001,2021-08-19_16h25.06.050,natb3,2021.2.3,Win32,60.0024001,611bdb3cfaa8b28f0ecd3f55,611e07ecdcc96256ae8d5b80,611e77bae313b5cff1083b89,
,,,,space,0.4669,,0,212,212,174,1,B, , , , ,space,2500,2.5,,001,2021-08-19_16h25.06.050,natb3,2021.2.3,Win32,60.0024001,611bdb3cfaa8b28f0ecd3f55,611e07ecdcc96256ae8d5b80,611e77bae313b5cff1083b89,
,,,,space,0.4004,,0,213,213,124,1,P, , , , ,space,2000,2,,001,2021-08-19_16h25.06.050,natb3,2021.2.3,Win32,60.0024001,611bdb3cfaa8b28f0ecd3f55,611e07ecdcc96256ae8d5b80,611e77bae313b5cff1083b89,
,,,,space,0.4336,,0,214,214,223,1,Q, , , , ,space,2000,2,,001,2021-08-19_16h25.06.050,natb3,2021.2.3,Win32,60.0024001,611bdb3cfaa8b28f0ecd3f55,611e07ecdcc96256ae8d5b80,611e77bae313b5cff1083b89,
,,,,,,,0,215,215,33,1,X, , , , ,,1500,1.5,,001,2021-08-19_16h25.06.050,natb3,2021.2.3,Win32,60.0024001,611bdb3cfaa8b28f0ecd3f55,611e07ecdcc96256ae8d5b80,611e77bae313b5cff1083b89,
,,,,space,0.4687,,0,216,216,212,1,Q, , , , ,space,2500,2.5,,001,2021-08-19_16h25.06.050,natb3,2021.2.3,Win32,60.0024001,611bdb3cfaa8b28f0ecd3f55,611e07ecdcc96256ae8d5b80,611e77bae313b5cff1083b89,
,,,,space,0.4175,,0,217,217,321,1,N, , , , ,space,2000,2,,001,2021-08-19_16h25.06.050,natb3,2021.2.3,Win32,60.0024001,611bdb3cfaa8b28f0ecd3f55,611e07ecdcc96256ae8d5b80,611e77bae313b5cff1083b89,
,,,,space,0.4668,,0,218,218,334,1,O, , , , ,space,1500,1.5,,001,2021-08-19_16h25.06.050,natb3,2021.2.3,Win32,60.0024001,611bdb3cfaa8b28f0ecd3f55,611e07ecdcc96256ae8d5b80,611e77bae313b5cff1083b89,
,,,,space,0.4501,,0,219,219,132,1,H, , , , ,space,2500,2.5,,001,2021-08-19_16h25.06.050,natb3,2021.2.3,Win32,60.0024001,611bdb3cfaa8b28f0ecd3f55,611e07ecdcc96256ae8d5b80,611e77bae313b5cff1083b89,
,,,,space,0.3833,,0,220,220,55,1,H, , , , ,space,2500,2.5,,001,2021-08-19_16h25.06.050,natb3,2021.2.3,Win32,60.0024001,611bdb3cfaa8b28f0ecd3f55,611e07ecdcc96256ae8d5b80,611e77bae313b5cff1083b89,
,,,,space,0.4174,,0,221,221,10,1,O, , , , ,space,2000,2,,001,2021-08-19_16h25.06.050,natb3,2021.2.3,Win32,60.0024001,611bdb3cfaa8b28f0ecd3f55,611e07ecdcc96256ae8d5b80,611e77bae313b5cff1083b89,
,,,,space,0.4004,,0,222,222,64,1,N, , , , ,space,2000,2,,001,2021-08-19_16h25.06.050,natb3,2021.2.3,Win32,60.0024001,611bdb3cfaa8b28f0ecd3f55,611e07ecdcc96256ae8d5b80,611e77bae313b5cff1083b89,
,,,,space,0.3836,,0,223,223,139,1,V, , , , ,space,2000,2,,001,2021-08-19_16h25.06.050,natb3,2021.2.3,Win32,60.0024001,611bdb3cfaa8b28f0ecd3f55,611e07ecdcc96256ae8d5b80,611e77bae313b5cff1083b89,
,,,,space,0.4337,,0,224,224,29,1,B, , , , ,space,1500,1.5,,001,2021-08-19_16h25.06.050,natb3,2021.2.3,Win32,60.0024001,611bdb3cfaa8b28f0ecd3f55,611e07ecdcc96256ae8d5b80,611e77bae313b5cff1083b89,
,,,,space,0.4186,,0,225,225,120,1,U, , , , ,space,1500,1.5,,001,2021-08-19_16h25.06.050,natb3,2021.2.3,Win32,60.0024001,611bdb3cfaa8b28f0ecd3f55,611e07ecdcc96256ae8d5b80,611e77bae313b5cff1083b89,
,,,,space,0.4502,,0,226,226,284,1,V, , , , ,space,2500,2.5,,001,2021-08-19_16h25.06.050,natb3,2021.2.3,Win32,60.0024001,611bdb3cfaa8b28f0ecd3f55,611e07ecdcc96256ae8d5b80,611e77bae313b5cff1083b89,
,,,,space,0.4341,,0,227,227,185,1,Y, , , , ,space,2500,2.5,,001,2021-08-19_16h25.06.050,natb3,2021.2.3,Win32,60.0024001,611bdb3cfaa8b28f0ecd3f55,611e07ecdcc96256ae8d5b80,611e77bae313b5cff1083b89,
,,,,space,0.4169,,0,228,228,100,1,M, , , , ,space,2000,2,,001,2021-08-19_16h25.06.050,natb3,2021.2.3,Win32,60.0024001,611bdb3cfaa8b28f0ecd3f55,611e07ecdcc96256ae8d5b80,611e77bae313b5cff1083b89,
,,,,space,0.3669,,0,229,229,114,1,E, , , , ,space,2000,2,,001,2021-08-19_16h25.06.050,natb3,2021.2.3,Win32,60.0024001,611bdb3cfaa8b28f0ecd3f55,611e07ecdcc96256ae8d5b80,611e77bae313b5cff1083b89,
,,,,,,,0,230,230,129,1,X,2,3,5, ,,1500,1.5,,001,2021-08-19_16h25.06.050,natb3,2021.2.3,Win32,60.0024001,611bdb3cfaa8b28f0ecd3f55,611e07ecdcc96256ae8d5b80,611e77bae313b5cff1083b89,
,,,,space,0.4658,,0,231,231,20,1,H, , , , ,space,1500,1.5,,001,2021-08-19_16h25.06.050,natb3,2021.2.3,Win32,60.0024001,611bdb3cfaa8b28f0ecd3f55,611e07ecdcc96256ae8d5b80,611e77bae313b5cff1083b89,
,,,,space,0.4014,,0,232,232,289,1,Q, , , , ,space,2000,2,,001,2021-08-19_16h25.06.050,natb3,2021.2.3,Win32,60.0024001,611bdb3cfaa8b28f0ecd3f55,611e07ecdcc96256ae8d5b80,611e77bae313b5cff1083b89,
,,,,,,,0,233,233,158,1,X, , , , ,,1500,1.5,,001,2021-08-19_16h25.06.050,natb3,2021.2.3,Win32,60.0024001,611bdb3cfaa8b28f0ecd3f55,611e07ecdcc96256ae8d5b80,611e77bae313b5cff1083b89,
,,,,space,0.4004,,0,234,234,79,1,P, , , , ,space,2000,2,,001,2021-08-19_16h25.06.050,natb3,2021.2.3,Win32,60.0024001,611bdb3cfaa8b28f0ecd3f55,611e07ecdcc96256ae8d5b80,611e77bae313b5cff1083b89,
,,,,space,0.4009,,0,235,235,176,1,N, , , , ,space,1500,1.5,,001,2021-08-19_16h25.06.050,natb3,2021.2.3,Win32,60.0024001,611bdb3cfaa8b28f0ecd3f55,611e07ecdcc96256ae8d5b80,611e77bae313b5cff1083b89,
,,,,space,0.4341,,0,236,236,328,1,R, , , , ,space,1500,1.5,,001,2021-08-19_16h25.06.050,natb3,2021.2.3,Win32,60.0024001,611bdb3cfaa8b28f0ecd3f55,611e07ecdcc96256ae8d5b80,611e77bae313b5cff1083b89,
,,,,space,0.5002,,0,237,237,186,1,U, , , , ,space,2500,2.5,,001,2021-08-19_16h25.06.050,natb3,2021.2.3,Win32,60.0024001,611bdb3cfaa8b28f0ecd3f55,611e07ecdcc96256ae8d5b80,611e77bae313b5cff1083b89,
,,,,space,0.4007,,0,238,238,160,1,D, , , , ,space,1500,1.5,,001,2021-08-19_16h25.06.050,natb3,2021.2.3,Win32,60.0024001,611bdb3cfaa8b28f0ecd3f55,611e07ecdcc96256ae8d5b80,611e77bae313b5cff1083b89,
,,,,,,,0,239,239,125,1,X, , , , ,,2000,2,,001,2021-08-19_16h25.06.050,natb3,2021.2.3,Win32,60.0024001,611bdb3cfaa8b28f0ecd3f55,611e07ecdcc96256ae8d5b80,611e77bae313b5cff1083b89,
,,,,space,0.4334,,0,240,240,183,1,R, , , , ,space,1500,1.5,,001,2021-08-19_16h25.06.050,natb3,2021.2.3,Win32,60.0024001,611bdb3cfaa8b28f0ecd3f55,611e07ecdcc96256ae8d5b80,611e77bae313b5cff1083b89,
,,,,space,0.4,,0,241,241,14,1,S, , , , ,space,2500,2.5,,001,2021-08-19_16h25.06.050,natb3,2021.2.3,Win32,60.0024001,611bdb3cfaa8b28f0ecd3f55,611e07ecdcc96256ae8d5b80,611e77bae313b5cff1083b89,
,,,,space,0.4835,,0,242,242,217,1,T, , , , ,space,2500,2.5,,001,2021-08-19_16h25.06.050,natb3,2021.2.3,Win32,60.0024001,611bdb3cfaa8b28f0ecd3f55,611e07ecdcc96256ae8d5b80,611e77bae313b5cff1083b89,
,,,,,,,0,243,243,305,1,X, , , , ,,1500,1.5,,001,2021-08-19_16h25.06.050,natb3,2021.2.3,Win32,60.0024001,611bdb3cfaa8b28f0ecd3f55,611e07ecdcc96256ae8d5b80,611e77bae313b5cff1083b89,
,,,,,,,0,244,244,311,1,X,1,2,7,3,,2500,2.5,,001,2021-08-19_16h25.06.050,natb3,2021.2.3,Win32,60.0024001,611bdb3cfaa8b28f0ecd3f55,611e07ecdcc96256ae8d5b80,611e77bae313b5cff1083b89,
,,,,space,0.5338,,0,245,245,270,1,S, , , , ,space,1500,1.5,,001,2021-08-19_16h25.06.050,natb3,2021.2.3,Win32,60.0024001,611bdb3cfaa8b28f0ecd3f55,611e07ecdcc96256ae8d5b80,611e77bae313b5cff1083b89,
,,,,space,0.4848,,0,246,246,19,1,G, , , , ,space,1500,1.5,,001,2021-08-19_16h25.06.050,natb3,2021.2.3,Win32,60.0024001,611bdb3cfaa8b28f0ecd3f55,611e07ecdcc96256ae8d5b80,611e77bae313b5cff1083b89,
,,,,space,0.4173,,0,247,247,136,1,Z, , , , ,space,2500,2.5,,001,2021-08-19_16h25.06.050,natb3,2021.2.3,Win32,60.0024001,611bdb3cfaa8b28f0ecd3f55,611e07ecdcc96256ae8d5b80,611e77bae313b5cff1083b89,
,,,,space,0.4502,,0,248,248,0,1,Q, , , , ,space,1500,1.5,,001,2021-08-19_16h25.06.050,natb3,2021.2.3,Win32,60.0024001,611bdb3cfaa8b28f0ecd3f55,611e07ecdcc96256ae8d5b80,611e77bae313b5cff1083b89,
,,,,space,0.4173,,0,249,249,47,1,P, , , , ,space,2000,2,,001,2021-08-19_16h25.06.050,natb3,2021.2.3,Win32,60.0024001,611bdb3cfaa8b28f0ecd3f55,611e07ecdcc96256ae8d5b80,611e77bae313b5cff1083b89,
,,,,space,0.3834,,0,250,250,134,1,J, , , , ,space,2000,2,,001,2021-08-19_16h25.06.050,natb3,2021.2.3,Win32,60.0024001,611bdb3cfaa8b28f0ecd3f55,611e07ecdcc96256ae8d5b80,611e77bae313b5cff1083b89,
,,,,space,0.4349,,0,251,251,5,1,T, , , , ,space,2000,2,,001,2021-08-19_16h25.06.050,natb3,2021.2.3,Win32,60.0024001,611bdb3cfaa8b28f0ecd3f55,611e07ecdcc96256ae8d5b80,611e77bae313b5cff1083b89,
,,,,,,,0,252,252,335,1,P,,,,,space,1500,1.5,,001,2021-08-19_16h25.06.050,natb3,2021.2.3,Win32,60.0024001,611bdb3cfaa8b28f0ecd3f55,611e07ecdcc96256ae8d5b80,611e77bae313b5cff1083b89,
,,,,space,0.4816,,0,253,253,300,1,O, , , , ,space,2500,2.5,,001,2021-08-19_16h25.06.050,natb3,2021.2.3,Win32,60.0024001,611bdb3cfaa8b28f0ecd3f55,611e07ecdcc96256ae8d5b80,611e77bae313b5cff1083b89,
,,,,space,0.5008,,0,254,254,94,1,C, , , , ,space,2000,2,,001,2021-08-19_16h25.06.050,natb3,2021.2.3,Win32,60.0024001,611bdb3cfaa8b28f0ecd3f55,611e07ecdcc96256ae8d5b80,611e77bae313b5cff1083b89,
,,,,space,0.4674,,0,255,255,157,1,A, , , , ,space,2500,2.5,,001,2021-08-19_16h25.06.050,natb3,2021.2.3,Win32,60.0024001,611bdb3cfaa8b28f0ecd3f55,611e07ecdcc96256ae8d5b80,611e77bae313b5cff1083b89,
,,,,space,0.4172,,0,256,256,72,1,T, , , , ,space,1500,1.5,,001,2021-08-19_16h25.06.050,natb3,2021.2.3,Win32,60.0024001,611bdb3cfaa8b28f0ecd3f55,611e07ecdcc96256ae8d5b80,611e77bae313b5cff1083b89,
,,,,,,,0,257,257,255,1,X, , , , ,,1500,1.5,,001,2021-08-19_16h25.06.050,natb3,2021.2.3,Win32,60.0024001,611bdb3cfaa8b28f0ecd3f55,611e07ecdcc96256ae8d5b80,611e77bae313b5cff1083b89,
,,,,,,,0,258,258,84,1,X, , , , ,,2000,2,,001,2021-08-19_16h25.06.050,natb3,2021.2.3,Win32,60.0024001,611bdb3cfaa8b28f0ecd3f55,611e07ecdcc96256ae8d5b80,611e77bae313b5cff1083b89,
,,,,space,0.3754,,0,259,259,317,1,C, , , , ,space,2000,2,,001,2021-08-19_16h25.06.050,natb3,2021.2.3,Win32,60.0024001,611bdb3cfaa8b28f0ecd3f55,611e07ecdcc96256ae8d5b80,611e77bae313b5cff1083b89,
,,,,space,0.3952,,0,260,260,115,1,R, , , , ,space,1500,1.5,,001,2021-08-19_16h25.06.050,natb3,2021.2.3,Win32,60.0024001,611bdb3cfaa8b28f0ecd3f55,611e07ecdcc96256ae8d5b80,611e77bae313b5cff1083b89,
,,,,,,,0,261,261,277,1,X,8,5, ,2,,2000,2,,001,2021-08-19_16h25.06.050,natb3,2021.2.3,Win32,60.0024001,611bdb3cfaa8b28f0ecd3f55,611e07ecdcc96256ae8d5b80,611e77bae313b5cff1083b89,
,,,,space,0.3623,,0,262,262,3,1,R, , , , ,space,2000,2,,001,2021-08-19_16h25.06.050,natb3,2021.2.3,Win32,60.0024001,611bdb3cfaa8b28f0ecd3f55,611e07ecdcc96256ae8d5b80,611e77bae313b5cff1083b89,
,,,,,,,0,263,263,148,1,X, , , , ,,2000,2,,001,2021-08-19_16h25.06.050,natb3,2021.2.3,Win32,60.0024001,611bdb3cfaa8b28f0ecd3f55,611e07ecdcc96256ae8d5b80,611e77bae313b5cff1083b89,
,,,,space,0.4713,,0,264,264,237,1,S, , , , ,space,1500,1.5,,001,2021-08-19_16h25.06.050,natb3,2021.2.3,Win32,60.0024001,611bdb3cfaa8b28f0ecd3f55,611e07ecdcc96256ae8d5b80,611e77bae313b5cff1083b89,
,,,,space,0.427,,0,265,265,170,1,Z, , , , ,space,2000,2,,001,2021-08-19_16h25.06.050,natb3,2021.2.3,Win32,60.0024001,611bdb3cfaa8b28f0ecd3f55,611e07ecdcc96256ae8d5b80,611e77bae313b5cff1083b89,
,,,,,,,0,266,266,213,1,X, , , , ,,2500,2.5,,001,2021-08-19_16h25.06.050,natb3,2021.2.3,Win32,60.0024001,611bdb3cfaa8b28f0ecd3f55,611e07ecdcc96256ae8d5b80,611e77bae313b5cff1083b89,
,,,,,,,0,267,267,107,1,X,9,3, ,2,,2000,2,,001,2021-08-19_16h25.06.050,natb3,2021.2.3,Win32,60.0024001,611bdb3cfaa8b28f0ecd3f55,611e07ecdcc96256ae8d5b80,611e77bae313b5cff1083b89,
,,,,space,0.4574,,0,268,268,144,1,Q, , , , ,space,2500,2.5,,001,2021-08-19_16h25.06.050,natb3,2021.2.3,Win32,60.0024001,611bdb3cfaa8b28f0ecd3f55,611e07ecdcc96256ae8d5b80,611e77bae313b5cff1083b89,
,,,,,,,0,269,269,168,1,X, , , , ,,2500,2.5,,001,2021-08-19_16h25.06.050,natb3,2021.2.3,Win32,60.0024001,611bdb3cfaa8b28f0ecd3f55,611e07ecdcc96256ae8d5b80,611e77bae313b5cff1083b89,
,,,,space,0.5742,,0,270,270,17,1,F, , , , ,space,2500,2.5,,001,2021-08-19_16h25.06.050,natb3,2021.2.3,Win32,60.0024001,611bdb3cfaa8b28f0ecd3f55,611e07ecdcc96256ae8d5b80,611e77bae313b5cff1083b89,
,,,,space,0.4019,,0,271,271,165,1,J, , , , ,space,2500,2.5,,001,2021-08-19_16h25.06.050,natb3,2021.2.3,Win32,60.0024001,611bdb3cfaa8b28f0ecd3f55,611e07ecdcc96256ae8d5b80,611e77bae313b5cff1083b89,
,,,,space,0.4778,,0,272,272,331,1,Y, , , , ,space,2500,2.5,,001,2021-08-19_16h25.06.050,natb3,2021.2.3,Win32,60.0024001,611bdb3cfaa8b28f0ecd3f55,611e07ecdcc96256ae8d5b80,611e77bae313b5cff1083b89,
,,,,space,0.5168,,0,273,273,173,1,V, , , , ,space,1500,1.5,,001,2021-08-19_16h25.06.050,natb3,2021.2.3,Win32,60.0024001,611bdb3cfaa8b28f0ecd3f55,611e07ecdcc96256ae8d5b80,611e77bae313b5cff1083b89,
,,,,,,,0,274,274,200,1,X,7, ,5,3,,1500,1.5,,001,2021-08-19_16h25.06.050,natb3,2021.2.3,Win32,60.0024001,611bdb3cfaa8b28f0ecd3f55,611e07ecdcc96256ae8d5b80,611e77bae313b5cff1083b89,
,,,,,,,0,275,275,78,1,X, , , , ,,2000,2,,001,2021-08-19_16h25.06.050,natb3,2021.2.3,Win32,60.0024001,611bdb3cfaa8b28f0ecd3f55,611e07ecdcc96256ae8d5b80,611e77bae313b5cff1083b89,
,,,,space,0.4586,,0,276,276,222,1,O, , , , ,space,2000,2,,001,2021-08-19_16h25.06.050,natb3,2021.2.3,Win32,60.0024001,611bdb3cfaa8b28f0ecd3f55,611e07ecdcc96256ae8d5b80,611e77bae313b5cff1083b89,
,,,,,,,0,277,277,195,1,X, , , , ,,1500,1.5,,001,2021-08-19_16h25.06.050,natb3,2021.2.3,Win32,60.0024001,611bdb3cfaa8b28f0ecd3f55,611e07ecdcc96256ae8d5b80,611e77bae313b5cff1083b89,
,,,,space,0.4031,,0,278,278,130,1,F, , , , ,space,2000,2,,001,2021-08-19_16h25.06.050,natb3,2021.2.3,Win32,60.0024001,611bdb3cfaa8b28f0ecd3f55,611e07ecdcc96256ae8d5b80,611e77bae313b5cff1083b89,
,,,,,,,0,279,279,118,1,X, , , , ,,2000,2,,001,2021-08-19_16h25.06.050,natb3,2021.2.3,Win32,60.0024001,611bdb3cfaa8b28f0ecd3f55,611e07ecdcc96256ae8d5b80,611e77bae313b5cff1083b89,
,,,,,,,0,280,280,229,1,X,8, ,2,6,,2500,2.5,,001,2021-08-19_16h25.06.050,natb3,2021.2.3,Win32,60.0024001,611bdb3cfaa8b28f0ecd3f55,611e07ecdcc96256ae8d5b80,611e77bae313b5cff1083b89,
,,,,space,0.4256,,0,281,281,109,1,U, , , , ,space,1500,1.5,,001,2021-08-19_16h25.06.050,natb3,2021.2.3,Win32,60.0024001,611bdb3cfaa8b28f0ecd3f55,611e07ecdcc96256ae8d5b80,611e77bae313b5cff1083b89,
,,,,space,0.412,,0,282,282,95,1,V, , , , ,space,1500,1.5,,001,2021-08-19_16h25.06.050,natb3,2021.2.3,Win32,60.0024001,611bdb3cfaa8b28f0ecd3f55,611e07ecdcc96256ae8d5b80,611e77bae313b5cff1083b89,
,,,,space,0.5002,,0,283,283,164,1,H, , , , ,space,2500,2.5,,001,2021-08-19_16h25.06.050,natb3,2021.2.3,Win32,60.0024001,611bdb3cfaa8b28f0ecd3f55,611e07ecdcc96256ae8d5b80,611e77bae313b5cff1083b89,
,,,,space,0.4585,,0,284,284,249,1,C, , , , ,space,2000,2,,001,2021-08-19_16h25.06.050,natb3,2021.2.3,Win32,60.0024001,611bdb3cfaa8b28f0ecd3f55,611e07ecdcc96256ae8d5b80,611e77bae313b5cff1083b89,
,,,,space,0.4749,,0,285,285,247,1,Z, , , , ,space,1500,1.5,,001,2021-08-19_16h25.06.050,natb3,2021.2.3,Win32,60.0024001,611bdb3cfaa8b28f0ecd3f55,611e07ecdcc96256ae8d5b80,611e77bae313b5cff1083b89,
,,,,,,,0,286,286,102,1,X, ,6, , ,,1500,1.5,,001,2021-08-19_16h25.06.050,natb3,2021.2.3,Win32,60.0024001,611bdb3cfaa8b28f0ecd3f55,611e07ecdcc96256ae8d5b80,611e77bae313b5cff1083b89,
,,,,space,0.4335,,0,287,287,71,1,R, , , , ,space,2500,2.5,,001,2021-08-19_16h25.06.050,natb3,2021.2.3,Win32,60.0024001,611bdb3cfaa8b28f0ecd3f55,611e07ecdcc96256ae8d5b80,611e77bae313b5cff1083b89,
,,,,,,,0,288,288,271,1,X, , , , ,,2500,2.5,,001,2021-08-19_16h25.06.050,natb3,2021.2.3,Win32,60.0024001,611bdb3cfaa8b28f0ecd3f55,611e07ecdcc96256ae8d5b80,611e77bae313b5cff1083b89,
,,,,,,,0,289,289,27,1,X,5, ,1,3,,1500,1.5,,001,2021-08-19_16h25.06.050,natb3,2021.2.3,Win32,60.0024001,611bdb3cfaa8b28f0ecd3f55,611e07ecdcc96256ae8d5b80,611e77bae313b5cff1083b89,
,,,,space,0.5446,,0,290,290,201,1,K, , , , ,space,1500,1.5,,001,2021-08-19_16h25.06.050,natb3,2021.2.3,Win32,60.0024001,611bdb3cfaa8b28f0ecd3f55,611e07ecdcc96256ae8d5b80,611e77bae313b5cff1083b89,
,,,,,,,0,291,291,273,1,X, , , , ,,2000,2,,001,2021-08-19_16h25.06.050,natb3,2021.2.3,Win32,60.0024001,611bdb3cfaa8b28f0ecd3f55,611e07ecdcc96256ae8d5b80,611e77bae313b5cff1083b89,
,,,,,,,0,292,292,329,1,X,3,4, ,2,,2500,2.5,,001,2021-08-19_16h25.06.050,natb3,2021.2.3,Win32,60.0024001,611bdb3cfaa8b28f0ecd3f55,611e07ecdcc96256ae8d5b80,611e77bae313b5cff1083b89,
,,,,space,0.57,,0,293,293,32,1,M, , , , ,space,1500,1.5,,001,2021-08-19_16h25.06.050,natb3,2021.2.3,Win32,60.0024001,611bdb3cfaa8b28f0ecd3f55,611e07ecdcc96256ae8d5b80,611e77bae313b5cff1083b89,
,,,,,,,0,294,294,313,1,X, , , , ,,2500,2.5,,001,2021-08-19_16h25.06.050,natb3,2021.2.3,Win32,60.0024001,611bdb3cfaa8b28f0ecd3f55,611e07ecdcc96256ae8d5b80,611e77bae313b5cff1083b89,
,,,,space,0.4343,,0,295,295,110,1,I, , , , ,space,1500,1.5,,001,2021-08-19_16h25.06.050,natb3,2021.2.3,Win32,60.0024001,611bdb3cfaa8b28f0ecd3f55,611e07ecdcc96256ae8d5b80,611e77bae313b5cff1083b89,
,,,,space,0.3753,,0,296,296,83,1,D, , , , ,space,2000,2,,001,2021-08-19_16h25.06.050,natb3,2021.2.3,Win32,60.0024001,611bdb3cfaa8b28f0ecd3f55,611e07ecdcc96256ae8d5b80,611e77bae313b5cff1083b89,
,,,,space,0.3917,,0,297,297,294,1,T, , , , ,space,2000,2,,001,2021-08-19_16h25.06.050,natb3,2021.2.3,Win32,60.0024001,611bdb3cfaa8b28f0ecd3f55,611e07ecdcc96256ae8d5b80,611e77bae313b5cff1083b89,
,,,,,,,0,298,298,93,1,X,5, ,7, ,,2500,2.5,,001,2021-08-19_16h25.06.050,natb3,2021.2.3,Win32,60.0024001,611bdb3cfaa8b28f0ecd3f55,611e07ecdcc96256ae8d5b80,611e77bae313b5cff1083b89,
,,,,space,0.4834,,0,299,299,61,1,C, , , , ,space,2000,2,,001,2021-08-19_16h25.06.050,natb3,2021.2.3,Win32,60.0024001,611bdb3cfaa8b28f0ecd3f55,611e07ecdcc96256ae8d5b80,611e77bae313b5cff1083b89,
,,,,space,0.4334,,0,300,300,276,1,H, , , , ,space,2000,2,,001,2021-08-19_16h25.06.050,natb3,2021.2.3,Win32,60.0024001,611bdb3cfaa8b28f0ecd3f55,611e07ecdcc96256ae8d5b80,611e77bae313b5cff1083b89,
,,,,space,0.4088,,0,301,301,301,1,P, , , , ,space,1500,1.5,,001,2021-08-19_16h25.06.050,natb3,2021.2.3,Win32,60.0024001,611bdb3cfaa8b28f0ecd3f55,611e07ecdcc96256ae8d5b80,611e77bae313b5cff1083b89,
,,,,,,,0,302,302,315,1,X, , , , ,,2500,2.5,,001,2021-08-19_16h25.06.050,natb3,2021.2.3,Win32,60.0024001,611bdb3cfaa8b28f0ecd3f55,611e07ecdcc96256ae8d5b80,611e77bae313b5cff1083b89,
,,,,,,,0,303,303,291,1,X, , , , ,,2000,2,,001,2021-08-19_16h25.06.050,natb3,2021.2.3,Win32,60.0024001,611bdb3cfaa8b28f0ecd3f55,611e07ecdcc96256ae8d5b80,611e77bae313b5cff1083b89,
,,,,,,,0,304,304,18,1,X, ,2,5,8,,2500,2.5,,001,2021-08-19_16h25.06.050,natb3,2021.2.3,Win32,60.0024001,611bdb3cfaa8b28f0ecd3f55,611e07ecdcc96256ae8d5b80,611e77bae313b5cff1083b89,
,,,,space,0.5002,,0,305,305,57,1,K, , , , ,space,2500,2.5,,001,2021-08-19_16h25.06.050,natb3,2021.2.3,Win32,60.0024001,611bdb3cfaa8b28f0ecd3f55,611e07ecdcc96256ae8d5b80,611e77bae313b5cff1083b89,
,,,,,,,0,306,306,60,1,X,7,3,5, ,,1500,1.5,,001,2021-08-19_16h25.06.050,natb3,2021.2.3,Win32,60.0024001,611bdb3cfaa8b28f0ecd3f55,611e07ecdcc96256ae8d5b80,611e77bae313b5cff1083b89,
,,,,,,,0,307,307,69,1,X, , , , ,,1500,1.5,,001,2021-08-19_16h25.06.050,natb3,2021.2.3,Win32,60.0024001,611bdb3cfaa8b28f0ecd3f55,611e07ecdcc96256ae8d5b80,611e77bae313b5cff1083b89,
,,,,space,0.405,,0,308,308,225,1,E, , , , ,space,2000,2,,001,2021-08-19_16h25.06.050,natb3,2021.2.3,Win32,60.0024001,611bdb3cfaa8b28f0ecd3f55,611e07ecdcc96256ae8d5b80,611e77bae313b5cff1083b89,
,,,,space,0.4563,,0,309,309,150,1,T, , , , ,space,2500,2.5,,001,2021-08-19_16h25.06.050,natb3,2021.2.3,Win32,60.0024001,611bdb3cfaa8b28f0ecd3f55,611e07ecdcc96256ae8d5b80,611e77bae313b5cff1083b89,
,,,,,,,0,310,310,295,1,X,8,7,5, ,,2500,2.5,,001,2021-08-19_16h25.06.050,natb3,2021.2.3,Win32,60.0024001,611bdb3cfaa8b28f0ecd3f55,611e07ecdcc96256ae8d5b80,611e77bae313b5cff1083b89,
,,,,space,0.4168,,0,311,311,298,1,I, , , , ,space,2000,2,,001,2021-08-19_16h25.06.050,natb3,2021.2.3,Win32,60.0024001,611bdb3cfaa8b28f0ecd3f55,611e07ecdcc96256ae8d5b80,611e77bae313b5cff1083b89,
,,,,,,,0,312,312,116,1,X, , , , ,,2000,2,,001,2021-08-19_16h25.06.050,natb3,2021.2.3,Win32,60.0024001,611bdb3cfaa8b28f0ecd3f55,611e07ecdcc96256ae8d5b80,611e77bae313b5cff1083b89,
,,,,space,0.3669,,0,313,313,8,1,U, , , , ,space,1500,1.5,,001,2021-08-19_16h25.06.050,natb3,2021.2.3,Win32,60.0024001,611bdb3cfaa8b28f0ecd3f55,611e07ecdcc96256ae8d5b80,611e77bae313b5cff1083b89,
,,,,space,0.3671,,0,314,314,230,1,U, , , , ,space,1500,1.5,,001,2021-08-19_16h25.06.050,natb3,2021.2.3,Win32,60.0024001,611bdb3cfaa8b28f0ecd3f55,611e07ecdcc96256ae8d5b80,611e77bae313b5cff1083b89,
,,,,space,0.3683,,0,315,315,206,1,V, , , , ,space,2000,2,,001,2021-08-19_16h25.06.050,natb3,2021.2.3,Win32,60.0024001,611bdb3cfaa8b28f0ecd3f55,611e07ecdcc96256ae8d5b80,611e77bae313b5cff1083b89,
,,,,space,0.3681,,0,316,316,292,1,E, , , , ,space,2000,2,,001,2021-08-19_16h25.06.050,natb3,2021.2.3,Win32,60.0024001,611bdb3cfaa8b28f0ecd3f55,611e07ecdcc96256ae8d5b80,611e77bae313b5cff1083b89,
,,,,,,,0,317,317,263,1,X,4, ,6, ,,1500,1.5,,001,2021-08-19_16h25.06.050,natb3,2021.2.3,Win32,60.0024001,611bdb3cfaa8b28f0ecd3f55,611e07ecdcc96256ae8d5b80,611e77bae313b5cff1083b89,
,,,,space,0.4442,,0,318,318,264,1,U, , , , ,space,2000,2,,001,2021-08-19_16h25.06.050,natb3,2021.2.3,Win32,60.0024001,611bdb3cfaa8b28f0ecd3f55,611e07ecdcc96256ae8d5b80,611e77bae313b5cff1083b89,
,,,,space,0.4007,,0,319,319,251,1,B, , , , ,space,1500,1.5,,001,2021-08-19_16h25.06.050,natb3,2021.2.3,Win32,60.0024001,611bdb3cfaa8b28f0ecd3f55,611e07ecdcc96256ae8d5b80,611e77bae313b5cff1083b89,
,,,,space,0.4768,,0,320,320,111,1,O, , , , ,space,2000,2,,001,2021-08-19_16h25.06.050,natb3,2021.2.3,Win32,60.0024001,611bdb3cfaa8b28f0ecd3f55,611e07ecdcc96256ae8d5b80,611e77bae313b5cff1083b89,
,,,,space,0.3834,,0,321,321,199,1,J, , , , ,space,2500,2.5,,001,2021-08-19_16h25.06.050,natb3,2021.2.3,Win32,60.0024001,611bdb3cfaa8b28f0ecd3f55,611e07ecdcc96256ae8d5b80,611e77bae313b5cff1083b89,
,,,,space,0.4336,,0,322,322,260,1,R, , , , ,space,2000,2,,001,2021-08-19_16h25.06.050,natb3,2021.2.3,Win32,60.0024001,611bdb3cfaa8b28f0ecd3f55,611e07ecdcc96256ae8d5b80,611e77bae313b5cff1083b89,
,,,,,,,0,323,323,211,1,X, , , , ,,2500,2.5,,001,2021-08-19_16h25.06.050,natb3,2021.2.3,Win32,60.0024001,611bdb3cfaa8b28f0ecd3f55,611e07ecdcc96256ae8d5b80,611e77bae313b5cff1083b89,
,,,,space,0.4168,,0,324,324,70,1,E, , , , ,space,2500,2.5,,001,2021-08-19_16h25.06.050,natb3,2021.2.3,Win32,60.0024001,611bdb3cfaa8b28f0ecd3f55,611e07ecdcc96256ae8d5b80,611e77bae313b5cff1083b89,
,,,,space,0.3676,,0,325,325,202,1,L, , , , ,space,2500,2.5,,001,2021-08-19_16h25.06.050,natb3,2021.2.3,Win32,60.0024001,611bdb3cfaa8b28f0ecd3f55,611e07ecdcc96256ae8d5b80,611e77bae313b5cff1083b89,
,,,,space,0.3846,,0,326,326,40,1,T, , , , ,space,1500,1.5,,001,2021-08-19_16h25.06.050,natb3,2021.2.3,Win32,60.0024001,611bdb3cfaa8b28f0ecd3f55,611e07ecdcc96256ae8d5b80,611e77bae313b5cff1083b89,
,,,,space,0.3559,,0,327,327,196,1,F, , , , ,space,1500,1.5,,001,2021-08-19_16h25.06.050,natb3,2021.2.3,Win32,60.0024001,611bdb3cfaa8b28f0ecd3f55,611e07ecdcc96256ae8d5b80,611e77bae313b5cff1083b89,
,,,,,,,0,328,328,138,1,X,8,5, ,3,,2000,2,,001,2021-08-19_16h25.06.050,natb3,2021.2.3,Win32,60.0024001,611bdb3cfaa8b28f0ecd3f55,611e07ecdcc96256ae8d5b80,611e77bae313b5cff1083b89,
,,,,space,0.4,,0,329,329,241,1,G, , , , ,space,2500,2.5,,001,2021-08-19_16h25.06.050,natb3,2021.2.3,Win32,60.0024001,611bdb3cfaa8b28f0ecd3f55,611e07ecdcc96256ae8d5b80,611e77bae313b5cff1083b89,
,,,,,,,0,330,330,35,1,X, , , , ,,2500,2.5,,001,2021-08-19_16h25.06.050,natb3,2021.2.3,Win32,60.0024001,611bdb3cfaa8b28f0ecd3f55,611e07ecdcc96256ae8d5b80,611e77bae313b5cff1083b89,
,,,,space,0.4169,,0,331,331,101,1,Q, , , , ,space,2500,2.5,,001,2021-08-19_16h25.06.050,natb3,2021.2.3,Win32,60.0024001,611bdb3cfaa8b28f0ecd3f55,611e07ecdcc96256ae8d5b80,611e77bae313b5cff1083b89,
,,,,space,0.3345,,0,332,332,205,1,C, , , , ,space,2000,2,,001,2021-08-19_16h25.06.050,natb3,2021.2.3,Win32,60.0024001,611bdb3cfaa8b28f0ecd3f55,611e07ecdcc96256ae8d5b80,611e77bae313b5cff1083b89,
,,,,,,,0,333,333,166,1,X, , , , ,,2000,2,,001,2021-08-19_16h25.06.050,natb3,2021.2.3,Win32,60.0024001,611bdb3cfaa8b28f0ecd3f55,611e07ecdcc96256ae8d5b80,611e77bae313b5cff1083b89,
,,,,space,0.4767,,0,334,334,41,1,Y, , , , ,space,2500,2.5,,001,2021-08-19_16h25.06.050,natb3,2021.2.3,Win32,60.0024001,611bdb3cfaa8b28f0ecd3f55,611e07ecdcc96256ae8d5b80,611e77bae313b5cff1083b89,
,,,,space,0.4252,,0,335,335,312,1,K, , , , ,space,2000,2,,001,2021-08-19_16h25.06.050,natb3,2021.2.3,Win32,60.0024001,611bdb3cfaa8b28f0ecd3f55,611e07ecdcc96256ae8d5b80,611e77bae313b5cff1083b89,
