key_resp_2.keys,key_resp_2.rt,key_resp_3.keys,key_resp_3.rt,key_resp.keys,key_resp.rt,key_resp_4.keys,trials.thisRepN,trials.thisTrialN,trials.thisN,trials.thisIndex,trials.ran,stimulus,distractor1,distractor2,distractor3,distractor4,CorrAns,isi_duration,isi_dur_in_seconds,participant,session,date,expName,psychopyVersion,OS,frameRate,PROLIFIC_PID,STUDY_ID,SESSION_ID,key_resp_4.rt
return,12.9772,space,5.1918,space,0.6383,,0,0,0,298,1,I, , , , ,space,2000,2,,001,2021-08-19_16h48.45.155,natb3,2021.2.3,Win32,60.34638827,60f321b0a92d5934667ea65c,611e07ecdcc96256ae8d5b80,611e7d32f2854f8325f463e6,
,,,,space,0.4277,,0,1,1,115,1,R, , , , ,space,1500,1.5,,001,2021-08-19_16h48.45.155,natb3,2021.2.3,Win32,60.34638827,60f321b0a92d5934667ea65c,611e07ecdcc96256ae8d5b80,611e7d32f2854f8325f463e6,
,,,,space,0.3659,,0,2,2,216,1,R, , , , ,space,1500,1.5,,001,2021-08-19_16h48.45.155,natb3,2021.2.3,Win32,60.34638827,60f321b0a92d5934667ea65c,611e07ecdcc96256ae8d5b80,611e7d32f2854f8325f463e6,
,,,,space,0.4216,,0,3,3,319,1,V, , , , ,space,2000,2,,001,2021-08-19_16h48.45.155,natb3,2021.2.3,Win32,60.34638827,60f321b0a92d5934667ea65c,611e07ecdcc96256ae8d5b80,611e7d32f2854f8325f463e6,
,,,,space,0.3167,,0,4,4,45,1,O, , , , ,space,2000,2,,001,2021-08-19_16h48.45.155,natb3,2021.2.3,Win32,60.34638827,60f321b0a92d5934667ea65c,611e07ecdcc96256ae8d5b80,611e7d32f2854f8325f463e6,
,,,,space,0.2658,,0,5,5,241,1,G, , , , ,space,2500,2.5,,001,2021-08-19_16h48.45.155,natb3,2021.2.3,Win32,60.34638827,60f321b0a92d5934667ea65c,611e07ecdcc96256ae8d5b80,611e7d32f2854f8325f463e6,
,,,,space,0.281,,0,6,6,70,1,E, , , , ,space,2500,2.5,,001,2021-08-19_16h48.45.155,natb3,2021.2.3,Win32,60.34638827,60f321b0a92d5934667ea65c,611e07ecdcc96256ae8d5b80,611e7d32f2854f8325f463e6,
,,,,space,0.2735,,0,7,7,10,1,O, , , , ,space,2000,2,,001,2021-08-19_16h48.45.155,natb3,2021.2.3,Win32,60.34638827,60f321b0a92d5934667ea65c,611e07ecdcc96256ae8d5b80,611e7d32f2854f8325f463e6,
,,,,space,0.315,,0,8,8,269,1,A, , , , ,space,2500,2.5,,001,2021-08-19_16h48.45.155,natb3,2021.2.3,Win32,60.34638827,60f321b0a92d5934667ea65c,611e07ecdcc96256ae8d5b80,611e7d32f2854f8325f463e6,
,,,,space,0.367,,0,9,9,78,1,X, , , , ,,2000,2,,001,2021-08-19_16h48.45.155,natb3,2021.2.3,Win32,60.34638827,60f321b0a92d5934667ea65c,611e07ecdcc96256ae8d5b80,611e7d32f2854f8325f463e6,
,,,,space,0.5244,,0,10,10,136,1,Z, , , , ,space,2500,2.5,,001,2021-08-19_16h48.45.155,natb3,2021.2.3,Win32,60.34638827,60f321b0a92d5934667ea65c,611e07ecdcc96256ae8d5b80,611e7d32f2854f8325f463e6,
,,,,space,0.4084,,0,11,11,186,1,U, , , , ,space,2500,2.5,,001,2021-08-19_16h48.45.155,natb3,2021.2.3,Win32,60.34638827,60f321b0a92d5934667ea65c,611e07ecdcc96256ae8d5b80,611e7d32f2854f8325f463e6,
,,,,space,0.3651,,0,12,12,219,1,Y, , , , ,space,2000,2,,001,2021-08-19_16h48.45.155,natb3,2021.2.3,Win32,60.34638827,60f321b0a92d5934667ea65c,611e07ecdcc96256ae8d5b80,611e7d32f2854f8325f463e6,
,,,,,,,0,13,13,191,1,X,1, ,3,4,,2500,2.5,,001,2021-08-19_16h48.45.155,natb3,2021.2.3,Win32,60.34638827,60f321b0a92d5934667ea65c,611e07ecdcc96256ae8d5b80,611e7d32f2854f8325f463e6,
,,,,,,,0,14,14,96,1,X, , , , ,,1500,1.5,,001,2021-08-19_16h48.45.155,natb3,2021.2.3,Win32,60.34638827,60f321b0a92d5934667ea65c,611e07ecdcc96256ae8d5b80,611e7d32f2854f8325f463e6,
,,,,space,0.4587,,0,15,15,40,1,T, , , , ,space,1500,1.5,,001,2021-08-19_16h48.45.155,natb3,2021.2.3,Win32,60.34638827,60f321b0a92d5934667ea65c,611e07ecdcc96256ae8d5b80,611e7d32f2854f8325f463e6,
,,,,space,0.3514,,0,16,16,11,1,P, , , , ,space,2500,2.5,,001,2021-08-19_16h48.45.155,natb3,2021.2.3,Win32,60.34638827,60f321b0a92d5934667ea65c,611e07ecdcc96256ae8d5b80,611e7d32f2854f8325f463e6,
,,,,space,0.5285,,0,17,17,13,1,A, , , , ,space,2000,2,,001,2021-08-19_16h48.45.155,natb3,2021.2.3,Win32,60.34638827,60f321b0a92d5934667ea65c,611e07ecdcc96256ae8d5b80,611e7d32f2854f8325f463e6,
,,,,space,0.4052,,0,18,18,85,1,F, , , , ,space,2500,2.5,,001,2021-08-19_16h48.45.155,natb3,2021.2.3,Win32,60.34638827,60f321b0a92d5934667ea65c,611e07ecdcc96256ae8d5b80,611e7d32f2854f8325f463e6,
,,,,space,0.3007,,0,19,19,334,1,O, , , , ,space,1500,1.5,,001,2021-08-19_16h48.45.155,natb3,2021.2.3,Win32,60.34638827,60f321b0a92d5934667ea65c,611e07ecdcc96256ae8d5b80,611e7d32f2854f8325f463e6,
,,,,space,0.3369,,0,20,20,192,1,A, , , , ,space,2000,2,,001,2021-08-19_16h48.45.155,natb3,2021.2.3,Win32,60.34638827,60f321b0a92d5934667ea65c,611e07ecdcc96256ae8d5b80,611e7d32f2854f8325f463e6,
,,,,space,0.3483,,0,21,21,152,1,U, , , , ,space,2000,2,,001,2021-08-19_16h48.45.155,natb3,2021.2.3,Win32,60.34638827,60f321b0a92d5934667ea65c,611e07ecdcc96256ae8d5b80,611e7d32f2854f8325f463e6,
,,,,space,0.4824,,0,22,22,60,1,X,7,3,5, ,,1500,1.5,,001,2021-08-19_16h48.45.155,natb3,2021.2.3,Win32,60.34638827,60f321b0a92d5934667ea65c,611e07ecdcc96256ae8d5b80,611e7d32f2854f8325f463e6,
,,,,space,0.8839,,0,23,23,308,1,G, , , , ,space,1500,1.5,,001,2021-08-19_16h48.45.155,natb3,2021.2.3,Win32,60.34638827,60f321b0a92d5934667ea65c,611e07ecdcc96256ae8d5b80,611e7d32f2854f8325f463e6,
,,,,,,,0,24,24,273,1,X, , , , ,,2000,2,,001,2021-08-19_16h48.45.155,natb3,2021.2.3,Win32,60.34638827,60f321b0a92d5934667ea65c,611e07ecdcc96256ae8d5b80,611e7d32f2854f8325f463e6,
,,,,,,,0,25,25,248,1,X, ,1,5, ,,1500,1.5,,001,2021-08-19_16h48.45.155,natb3,2021.2.3,Win32,60.34638827,60f321b0a92d5934667ea65c,611e07ecdcc96256ae8d5b80,611e7d32f2854f8325f463e6,
,,,,space,0.4915,,0,26,26,276,1,H, , , , ,space,2000,2,,001,2021-08-19_16h48.45.155,natb3,2021.2.3,Win32,60.34638827,60f321b0a92d5934667ea65c,611e07ecdcc96256ae8d5b80,611e7d32f2854f8325f463e6,
,,,,space,0.6827,,0,27,27,332,1,U, , , , ,space,2000,2,,001,2021-08-19_16h48.45.155,natb3,2021.2.3,Win32,60.34638827,60f321b0a92d5934667ea65c,611e07ecdcc96256ae8d5b80,611e7d32f2854f8325f463e6,
,,,,space,0.4427,,0,28,28,272,1,D, , , , ,space,2000,2,,001,2021-08-19_16h48.45.155,natb3,2021.2.3,Win32,60.34638827,60f321b0a92d5934667ea65c,611e07ecdcc96256ae8d5b80,611e7d32f2854f8325f463e6,
,,,,,,,0,29,29,299,1,X, , , , ,,2500,2.5,,001,2021-08-19_16h48.45.155,natb3,2021.2.3,Win32,60.34638827,60f321b0a92d5934667ea65c,611e07ecdcc96256ae8d5b80,611e7d32f2854f8325f463e6,
,,,,space,0.6252,,0,30,30,143,1,M, , , , ,space,2500,2.5,,001,2021-08-19_16h48.45.155,natb3,2021.2.3,Win32,60.34638827,60f321b0a92d5934667ea65c,611e07ecdcc96256ae8d5b80,611e7d32f2854f8325f463e6,
,,,,,,,0,31,31,182,1,X, , , , ,,1500,1.5,,001,2021-08-19_16h48.45.155,natb3,2021.2.3,Win32,60.34638827,60f321b0a92d5934667ea65c,611e07ecdcc96256ae8d5b80,611e7d32f2854f8325f463e6,
,,,,space,0.5514,,0,32,32,198,1,H, , , , ,space,2500,2.5,,001,2021-08-19_16h48.45.155,natb3,2021.2.3,Win32,60.34638827,60f321b0a92d5934667ea65c,611e07ecdcc96256ae8d5b80,611e7d32f2854f8325f463e6,
,,,,space,0.3359,,0,33,33,305,1,X, , , , ,,1500,1.5,,001,2021-08-19_16h48.45.155,natb3,2021.2.3,Win32,60.34638827,60f321b0a92d5934667ea65c,611e07ecdcc96256ae8d5b80,611e7d32f2854f8325f463e6,
,,,,,,,0,34,34,91,1,L, , , , ,space,2000,2,,001,2021-08-19_16h48.45.155,natb3,2021.2.3,Win32,60.34638827,60f321b0a92d5934667ea65c,611e07ecdcc96256ae8d5b80,611e7d32f2854f8325f463e6,
,,,,space,0.5312,,0,35,35,278,1,J, , , , ,space,2000,2,,001,2021-08-19_16h48.45.155,natb3,2021.2.3,Win32,60.34638827,60f321b0a92d5934667ea65c,611e07ecdcc96256ae8d5b80,611e7d32f2854f8325f463e6,
,,,,,,,0,36,36,203,1,X, , , , ,,2500,2.5,,001,2021-08-19_16h48.45.155,natb3,2021.2.3,Win32,60.34638827,60f321b0a92d5934667ea65c,611e07ecdcc96256ae8d5b80,611e7d32f2854f8325f463e6,
,,,,space,0.943,,0,37,37,209,1,N, , , , ,space,2000,2,,001,2021-08-19_16h48.45.155,natb3,2021.2.3,Win32,60.34638827,60f321b0a92d5934667ea65c,611e07ecdcc96256ae8d5b80,611e7d32f2854f8325f463e6,
,,,,,,,0,38,38,166,1,X, , , , ,,2000,2,,001,2021-08-19_16h48.45.155,natb3,2021.2.3,Win32,60.34638827,60f321b0a92d5934667ea65c,611e07ecdcc96256ae8d5b80,611e7d32f2854f8325f463e6,
,,,,,,,0,39,39,295,1,X,8,7,5, ,,2500,2.5,,001,2021-08-19_16h48.45.155,natb3,2021.2.3,Win32,60.34638827,60f321b0a92d5934667ea65c,611e07ecdcc96256ae8d5b80,611e7d32f2854f8325f463e6,
,,,,space,0.8453,,0,40,40,75,1,U, , , , ,space,1500,1.5,,001,2021-08-19_16h48.45.155,natb3,2021.2.3,Win32,60.34638827,60f321b0a92d5934667ea65c,611e07ecdcc96256ae8d5b80,611e7d32f2854f8325f463e6,
,,,,space,0.5187,,0,41,41,265,1,I, , , , ,space,2000,2,,001,2021-08-19_16h48.45.155,natb3,2021.2.3,Win32,60.34638827,60f321b0a92d5934667ea65c,611e07ecdcc96256ae8d5b80,611e7d32f2854f8325f463e6,
,,,,space,0.5449,,0,42,42,232,1,O, , , , ,space,2500,2.5,,001,2021-08-19_16h48.45.155,natb3,2021.2.3,Win32,60.34638827,60f321b0a92d5934667ea65c,611e07ecdcc96256ae8d5b80,611e7d32f2854f8325f463e6,
,,,,,,,0,43,43,116,1,X, , , , ,,2000,2,,001,2021-08-19_16h48.45.155,natb3,2021.2.3,Win32,60.34638827,60f321b0a92d5934667ea65c,611e07ecdcc96256ae8d5b80,611e7d32f2854f8325f463e6,
,,,,space,0.4538,,0,44,44,301,1,P, , , , ,space,1500,1.5,,001,2021-08-19_16h48.45.155,natb3,2021.2.3,Win32,60.34638827,60f321b0a92d5934667ea65c,611e07ecdcc96256ae8d5b80,611e7d32f2854f8325f463e6,
,,,,space,0.5148,,0,45,45,226,1,R, , , , ,space,2000,2,,001,2021-08-19_16h48.45.155,natb3,2021.2.3,Win32,60.34638827,60f321b0a92d5934667ea65c,611e07ecdcc96256ae8d5b80,611e7d32f2854f8325f463e6,
,,,,,,,0,46,46,229,1,X,8, ,2,6,,2500,2.5,,001,2021-08-19_16h48.45.155,natb3,2021.2.3,Win32,60.34638827,60f321b0a92d5934667ea65c,611e07ecdcc96256ae8d5b80,611e7d32f2854f8325f463e6,
,,,,,,,0,47,47,211,1,X, , , , ,,2500,2.5,,001,2021-08-19_16h48.45.155,natb3,2021.2.3,Win32,60.34638827,60f321b0a92d5934667ea65c,611e07ecdcc96256ae8d5b80,611e7d32f2854f8325f463e6,
,,,,space,0.4273,,0,48,48,128,1,D, , , , ,space,2500,2.5,,001,2021-08-19_16h48.45.155,natb3,2021.2.3,Win32,60.34638827,60f321b0a92d5934667ea65c,611e07ecdcc96256ae8d5b80,611e7d32f2854f8325f463e6,
,,,,space,0.3578,,0,49,49,71,1,R, , , , ,space,2500,2.5,,001,2021-08-19_16h48.45.155,natb3,2021.2.3,Win32,60.34638827,60f321b0a92d5934667ea65c,611e07ecdcc96256ae8d5b80,611e7d32f2854f8325f463e6,
,,,,,,,0,50,50,145,1,X, , , , ,,2000,2,,001,2021-08-19_16h48.45.155,natb3,2021.2.3,Win32,60.34638827,60f321b0a92d5934667ea65c,611e07ecdcc96256ae8d5b80,611e7d32f2854f8325f463e6,
,,,,space,0.4322,,0,51,51,290,1,W, , , , ,space,1500,1.5,,001,2021-08-19_16h48.45.155,natb3,2021.2.3,Win32,60.34638827,60f321b0a92d5934667ea65c,611e07ecdcc96256ae8d5b80,611e7d32f2854f8325f463e6,
,,,,space,0.6501,,0,52,52,321,1,N, , , , ,space,2000,2,,001,2021-08-19_16h48.45.155,natb3,2021.2.3,Win32,60.34638827,60f321b0a92d5934667ea65c,611e07ecdcc96256ae8d5b80,611e7d32f2854f8325f463e6,
,,,,space,0.6355,,0,53,53,197,1,G, , , , ,space,2500,2.5,,001,2021-08-19_16h48.45.155,natb3,2021.2.3,Win32,60.34638827,60f321b0a92d5934667ea65c,611e07ecdcc96256ae8d5b80,611e7d32f2854f8325f463e6,
,,,,,,,0,54,54,51,1,X,7,5,8, ,,1500,1.5,,001,2021-08-19_16h48.45.155,natb3,2021.2.3,Win32,60.34638827,60f321b0a92d5934667ea65c,611e07ecdcc96256ae8d5b80,611e7d32f2854f8325f463e6,
,,,,space,0.5073,,0,55,55,266,1,O, , , , ,space,1500,1.5,,001,2021-08-19_16h48.45.155,natb3,2021.2.3,Win32,60.34638827,60f321b0a92d5934667ea65c,611e07ecdcc96256ae8d5b80,611e7d32f2854f8325f463e6,
,,,,space,0.3517,,0,56,56,26,1,C, , , , ,space,2000,2,,001,2021-08-19_16h48.45.155,natb3,2021.2.3,Win32,60.34638827,60f321b0a92d5934667ea65c,611e07ecdcc96256ae8d5b80,611e7d32f2854f8325f463e6,
,,,,space,0.473,,0,57,57,68,1,W, , , , ,space,2500,2.5,,001,2021-08-19_16h48.45.155,natb3,2021.2.3,Win32,60.34638827,60f321b0a92d5934667ea65c,611e07ecdcc96256ae8d5b80,611e7d32f2854f8325f463e6,
,,,,space,0.461,,0,58,58,320,1,B, , , , ,space,1500,1.5,,001,2021-08-19_16h48.45.155,natb3,2021.2.3,Win32,60.34638827,60f321b0a92d5934667ea65c,611e07ecdcc96256ae8d5b80,611e7d32f2854f8325f463e6,
,,,,space,0.468,,0,59,59,208,1,B, , , , ,space,1500,1.5,,001,2021-08-19_16h48.45.155,natb3,2021.2.3,Win32,60.34638827,60f321b0a92d5934667ea65c,611e07ecdcc96256ae8d5b80,611e7d32f2854f8325f463e6,
,,,,space,0.4008,,0,60,60,212,1,Q, , , , ,space,2500,2.5,,001,2021-08-19_16h48.45.155,natb3,2021.2.3,Win32,60.34638827,60f321b0a92d5934667ea65c,611e07ecdcc96256ae8d5b80,611e7d32f2854f8325f463e6,
,,,,,,,0,61,61,39,1,X,6,2, , ,,1500,1.5,,001,2021-08-19_16h48.45.155,natb3,2021.2.3,Win32,60.34638827,60f321b0a92d5934667ea65c,611e07ecdcc96256ae8d5b80,611e7d32f2854f8325f463e6,
,,,,space,0.7067,,0,62,62,121,1,I, , , , ,space,2000,2,,001,2021-08-19_16h48.45.155,natb3,2021.2.3,Win32,60.34638827,60f321b0a92d5934667ea65c,611e07ecdcc96256ae8d5b80,611e7d32f2854f8325f463e6,
,,,,,,,0,63,63,35,1,X, , , , ,,2500,2.5,,001,2021-08-19_16h48.45.155,natb3,2021.2.3,Win32,60.34638827,60f321b0a92d5934667ea65c,611e07ecdcc96256ae8d5b80,611e7d32f2854f8325f463e6,
,,,,space,0.8566,,0,64,64,79,1,P, , , , ,space,2000,2,,001,2021-08-19_16h48.45.155,natb3,2021.2.3,Win32,60.34638827,60f321b0a92d5934667ea65c,611e07ecdcc96256ae8d5b80,611e7d32f2854f8325f463e6,
,,,,,,,0,65,65,54,1,X, , , , ,,2000,2,,001,2021-08-19_16h48.45.155,natb3,2021.2.3,Win32,60.34638827,60f321b0a92d5934667ea65c,611e07ecdcc96256ae8d5b80,611e7d32f2854f8325f463e6,
,,,,space,0.6204,,0,66,66,215,1,E, , , , ,space,2500,2.5,,001,2021-08-19_16h48.45.155,natb3,2021.2.3,Win32,60.34638827,60f321b0a92d5934667ea65c,611e07ecdcc96256ae8d5b80,611e7d32f2854f8325f463e6,
,,,,space,0.5562,,0,67,67,64,1,N, , , , ,space,2000,2,,001,2021-08-19_16h48.45.155,natb3,2021.2.3,Win32,60.34638827,60f321b0a92d5934667ea65c,611e07ecdcc96256ae8d5b80,611e7d32f2854f8325f463e6,
,,,,,,,0,68,68,329,1,X,3,4, ,2,,2500,2.5,,001,2021-08-19_16h48.45.155,natb3,2021.2.3,Win32,60.34638827,60f321b0a92d5934667ea65c,611e07ecdcc96256ae8d5b80,611e7d32f2854f8325f463e6,
,,,,space,0.5978,,0,69,69,270,1,S, , , , ,space,1500,1.5,,001,2021-08-19_16h48.45.155,natb3,2021.2.3,Win32,60.34638827,60f321b0a92d5934667ea65c,611e07ecdcc96256ae8d5b80,611e7d32f2854f8325f463e6,
,,,,,,,0,70,70,4,1,X, , , , ,,2000,2,,001,2021-08-19_16h48.45.155,natb3,2021.2.3,Win32,60.34638827,60f321b0a92d5934667ea65c,611e07ecdcc96256ae8d5b80,611e7d32f2854f8325f463e6,
,,,,,,,0,71,71,130,1,F, , , , ,space,2000,2,,001,2021-08-19_16h48.45.155,natb3,2021.2.3,Win32,60.34638827,60f321b0a92d5934667ea65c,611e07ecdcc96256ae8d5b80,611e7d32f2854f8325f463e6,
,,,,space,0.5068,,0,72,72,228,1,Y, , , , ,space,2000,2,,001,2021-08-19_16h48.45.155,natb3,2021.2.3,Win32,60.34638827,60f321b0a92d5934667ea65c,611e07ecdcc96256ae8d5b80,611e7d32f2854f8325f463e6,
,,,,space,0.4223,,0,73,73,86,1,G, , , , ,space,2000,2,,001,2021-08-19_16h48.45.155,natb3,2021.2.3,Win32,60.34638827,60f321b0a92d5934667ea65c,611e07ecdcc96256ae8d5b80,611e7d32f2854f8325f463e6,
,,,,space,0.7986,,0,74,74,246,1,L, , , , ,space,2500,2.5,,001,2021-08-19_16h48.45.155,natb3,2021.2.3,Win32,60.34638827,60f321b0a92d5934667ea65c,611e07ecdcc96256ae8d5b80,611e7d32f2854f8325f463e6,
,,,,space,0.4122,,0,75,75,106,1,T, , , , ,space,1500,1.5,,001,2021-08-19_16h48.45.155,natb3,2021.2.3,Win32,60.34638827,60f321b0a92d5934667ea65c,611e07ecdcc96256ae8d5b80,611e7d32f2854f8325f463e6,
,,,,space,0.4205,,0,76,76,285,1,B, , , , ,space,1500,1.5,,001,2021-08-19_16h48.45.155,natb3,2021.2.3,Win32,60.34638827,60f321b0a92d5934667ea65c,611e07ecdcc96256ae8d5b80,611e7d32f2854f8325f463e6,
,,,,space,0.348,,0,77,77,231,1,I, , , , ,space,2500,2.5,,001,2021-08-19_16h48.45.155,natb3,2021.2.3,Win32,60.34638827,60f321b0a92d5934667ea65c,611e07ecdcc96256ae8d5b80,611e7d32f2854f8325f463e6,
,,,,space,0.272,,0,78,78,284,1,V, , , , ,space,2500,2.5,,001,2021-08-19_16h48.45.155,natb3,2021.2.3,Win32,60.34638827,60f321b0a92d5934667ea65c,611e07ecdcc96256ae8d5b80,611e7d32f2854f8325f463e6,
,,,,space,0.3887,,0,79,79,108,1,Y, , , , ,space,2500,2.5,,001,2021-08-19_16h48.45.155,natb3,2021.2.3,Win32,60.34638827,60f321b0a92d5934667ea65c,611e07ecdcc96256ae8d5b80,611e7d32f2854f8325f463e6,
,,,,,,,0,80,80,98,1,X, , , , ,,2500,2.5,,001,2021-08-19_16h48.45.155,natb3,2021.2.3,Win32,60.34638827,60f321b0a92d5934667ea65c,611e07ecdcc96256ae8d5b80,611e7d32f2854f8325f463e6,
,,,,space,0.4121,,0,81,81,83,1,D, , , , ,space,2000,2,,001,2021-08-19_16h48.45.155,natb3,2021.2.3,Win32,60.34638827,60f321b0a92d5934667ea65c,611e07ecdcc96256ae8d5b80,611e7d32f2854f8325f463e6,
,,,,space,0.4758,,0,82,82,181,1,E, , , , ,space,1500,1.5,,001,2021-08-19_16h48.45.155,natb3,2021.2.3,Win32,60.34638827,60f321b0a92d5934667ea65c,611e07ecdcc96256ae8d5b80,611e7d32f2854f8325f463e6,
,,,,space,0.3477,,0,83,83,3,1,R, , , , ,space,2000,2,,001,2021-08-19_16h48.45.155,natb3,2021.2.3,Win32,60.34638827,60f321b0a92d5934667ea65c,611e07ecdcc96256ae8d5b80,611e7d32f2854f8325f463e6,
,,,,space,0.3862,,0,84,84,61,1,C, , , , ,space,2000,2,,001,2021-08-19_16h48.45.155,natb3,2021.2.3,Win32,60.34638827,60f321b0a92d5934667ea65c,611e07ecdcc96256ae8d5b80,611e7d32f2854f8325f463e6,
,,,,,,,0,85,85,263,1,X,4, ,6, ,,1500,1.5,,001,2021-08-19_16h48.45.155,natb3,2021.2.3,Win32,60.34638827,60f321b0a92d5934667ea65c,611e07ecdcc96256ae8d5b80,611e7d32f2854f8325f463e6,
,,,,space,0.3411,,0,86,86,291,1,X, , , , ,,2000,2,,001,2021-08-19_16h48.45.155,natb3,2021.2.3,Win32,60.34638827,60f321b0a92d5934667ea65c,611e07ecdcc96256ae8d5b80,611e7d32f2854f8325f463e6,
,,,,,,,0,87,87,243,1,X, , , , ,,2500,2.5,,001,2021-08-19_16h48.45.155,natb3,2021.2.3,Win32,60.34638827,60f321b0a92d5934667ea65c,611e07ecdcc96256ae8d5b80,611e7d32f2854f8325f463e6,
,,,,space,0.5665,,0,88,88,56,1,J, , , , ,space,1500,1.5,,001,2021-08-19_16h48.45.155,natb3,2021.2.3,Win32,60.34638827,60f321b0a92d5934667ea65c,611e07ecdcc96256ae8d5b80,611e7d32f2854f8325f463e6,
,,,,space,0.8589,,0,89,89,97,1,B, , , , ,space,2500,2.5,,001,2021-08-19_16h48.45.155,natb3,2021.2.3,Win32,60.34638827,60f321b0a92d5934667ea65c,611e07ecdcc96256ae8d5b80,611e7d32f2854f8325f463e6,
,,,,space,0.4692,,0,90,90,256,1,Q, , , , ,space,2000,2,,001,2021-08-19_16h48.45.155,natb3,2021.2.3,Win32,60.34638827,60f321b0a92d5934667ea65c,611e07ecdcc96256ae8d5b80,611e7d32f2854f8325f463e6,
,,,,space,0.4769,,0,91,91,275,1,G, , , , ,space,1500,1.5,,001,2021-08-19_16h48.45.155,natb3,2021.2.3,Win32,60.34638827,60f321b0a92d5934667ea65c,611e07ecdcc96256ae8d5b80,611e7d32f2854f8325f463e6,
,,,,space,0.4573,,0,92,92,151,1,Y, , , , ,space,2500,2.5,,001,2021-08-19_16h48.45.155,natb3,2021.2.3,Win32,60.34638827,60f321b0a92d5934667ea65c,611e07ecdcc96256ae8d5b80,611e7d32f2854f8325f463e6,
,,,,space,0.4559,,0,93,93,73,1,Y, , , , ,space,2000,2,,001,2021-08-19_16h48.45.155,natb3,2021.2.3,Win32,60.34638827,60f321b0a92d5934667ea65c,611e07ecdcc96256ae8d5b80,611e7d32f2854f8325f463e6,
,,,,space,0.3969,,0,94,94,28,1,V, , , , ,space,1500,1.5,,001,2021-08-19_16h48.45.155,natb3,2021.2.3,Win32,60.34638827,60f321b0a92d5934667ea65c,611e07ecdcc96256ae8d5b80,611e7d32f2854f8325f463e6,
,,,,space,0.47,,0,95,95,314,1,L, , , , ,space,1500,1.5,,001,2021-08-19_16h48.45.155,natb3,2021.2.3,Win32,60.34638827,60f321b0a92d5934667ea65c,611e07ecdcc96256ae8d5b80,611e7d32f2854f8325f463e6,
,,,,space,0.3708,,0,96,96,303,1,A, , , , ,space,2000,2,,001,2021-08-19_16h48.45.155,natb3,2021.2.3,Win32,60.34638827,60f321b0a92d5934667ea65c,611e07ecdcc96256ae8d5b80,611e7d32f2854f8325f463e6,
,,,,space,0.5189,,0,97,97,120,1,U, , , , ,space,1500,1.5,,001,2021-08-19_16h48.45.155,natb3,2021.2.3,Win32,60.34638827,60f321b0a92d5934667ea65c,611e07ecdcc96256ae8d5b80,611e7d32f2854f8325f463e6,
,,,,space,0.4322,,0,98,98,328,1,R, , , , ,space,1500,1.5,,001,2021-08-19_16h48.45.155,natb3,2021.2.3,Win32,60.34638827,60f321b0a92d5934667ea65c,611e07ecdcc96256ae8d5b80,611e7d32f2854f8325f463e6,
,,,,space,0.2911,,0,99,99,183,1,R, , , , ,space,1500,1.5,,001,2021-08-19_16h48.45.155,natb3,2021.2.3,Win32,60.34638827,60f321b0a92d5934667ea65c,611e07ecdcc96256ae8d5b80,611e7d32f2854f8325f463e6,
,,,,space,0.3034,,0,100,100,14,1,S, , , , ,space,2500,2.5,,001,2021-08-19_16h48.45.155,natb3,2021.2.3,Win32,60.34638827,60f321b0a92d5934667ea65c,611e07ecdcc96256ae8d5b80,611e7d32f2854f8325f463e6,
,,,,space,0.5987,,0,101,101,294,1,T, , , , ,space,2000,2,,001,2021-08-19_16h48.45.155,natb3,2021.2.3,Win32,60.34638827,60f321b0a92d5934667ea65c,611e07ecdcc96256ae8d5b80,611e7d32f2854f8325f463e6,
,,,,,,,0,102,102,236,1,X,3, ,4,7,,2500,2.5,,001,2021-08-19_16h48.45.155,natb3,2021.2.3,Win32,60.34638827,60f321b0a92d5934667ea65c,611e07ecdcc96256ae8d5b80,611e7d32f2854f8325f463e6,
,,,,space,0.5605,,0,103,103,50,1,D, , , , ,space,1500,1.5,,001,2021-08-19_16h48.45.155,natb3,2021.2.3,Win32,60.34638827,60f321b0a92d5934667ea65c,611e07ecdcc96256ae8d5b80,611e7d32f2854f8325f463e6,
,,,,space,0.6123,,0,104,104,262,1,Y, , , , ,space,2500,2.5,,001,2021-08-19_16h48.45.155,natb3,2021.2.3,Win32,60.34638827,60f321b0a92d5934667ea65c,611e07ecdcc96256ae8d5b80,611e7d32f2854f8325f463e6,
,,,,space,0.4181,,0,105,105,36,1,W, , , , ,space,2000,2,,001,2021-08-19_16h48.45.155,natb3,2021.2.3,Win32,60.34638827,60f321b0a92d5934667ea65c,611e07ecdcc96256ae8d5b80,611e7d32f2854f8325f463e6,
,,,,,,,0,106,106,89,1,X,3, , , ,,2000,2,,001,2021-08-19_16h48.45.155,natb3,2021.2.3,Win32,60.34638827,60f321b0a92d5934667ea65c,611e07ecdcc96256ae8d5b80,611e7d32f2854f8325f463e6,
,,,,space,0.3643,,0,107,107,202,1,L, , , , ,space,2500,2.5,,001,2021-08-19_16h48.45.155,natb3,2021.2.3,Win32,60.34638827,60f321b0a92d5934667ea65c,611e07ecdcc96256ae8d5b80,611e7d32f2854f8325f463e6,
,,,,,,,0,108,108,218,1,X,1,3, ,8,,1500,1.5,,001,2021-08-19_16h48.45.155,natb3,2021.2.3,Win32,60.34638827,60f321b0a92d5934667ea65c,611e07ecdcc96256ae8d5b80,611e7d32f2854f8325f463e6,
,,,,space,0.6601,,0,109,109,217,1,T, , , , ,space,2500,2.5,,001,2021-08-19_16h48.45.155,natb3,2021.2.3,Win32,60.34638827,60f321b0a92d5934667ea65c,611e07ecdcc96256ae8d5b80,611e7d32f2854f8325f463e6,
,,,,space,0.7926,,0,110,110,324,1,Q, , , , ,space,2000,2,,001,2021-08-19_16h48.45.155,natb3,2021.2.3,Win32,60.34638827,60f321b0a92d5934667ea65c,611e07ecdcc96256ae8d5b80,611e7d32f2854f8325f463e6,
,,,,space,0.369,,0,111,111,23,1,X,1, ,5, ,,2000,2,,001,2021-08-19_16h48.45.155,natb3,2021.2.3,Win32,60.34638827,60f321b0a92d5934667ea65c,611e07ecdcc96256ae8d5b80,611e7d32f2854f8325f463e6,
,,,,,,,0,112,112,239,1,X, , , , ,,2000,2,,001,2021-08-19_16h48.45.155,natb3,2021.2.3,Win32,60.34638827,60f321b0a92d5934667ea65c,611e07ecdcc96256ae8d5b80,611e7d32f2854f8325f463e6,
,,,,space,0.5581,,0,113,113,20,1,H, , , , ,space,1500,1.5,,001,2021-08-19_16h48.45.155,natb3,2021.2.3,Win32,60.34638827,60f321b0a92d5934667ea65c,611e07ecdcc96256ae8d5b80,611e7d32f2854f8325f463e6,
,,,,space,0.6253,,0,114,114,180,1,W, , , , ,space,2000,2,,001,2021-08-19_16h48.45.155,natb3,2021.2.3,Win32,60.34638827,60f321b0a92d5934667ea65c,611e07ecdcc96256ae8d5b80,611e7d32f2854f8325f463e6,
,,,,space,0.5005,,0,115,115,88,1,J, , , , ,space,2500,2.5,,001,2021-08-19_16h48.45.155,natb3,2021.2.3,Win32,60.34638827,60f321b0a92d5934667ea65c,611e07ecdcc96256ae8d5b80,611e7d32f2854f8325f463e6,
,,,,,,,0,116,116,335,1,P,,,,,space,1500,1.5,,001,2021-08-19_16h48.45.155,natb3,2021.2.3,Win32,60.34638827,60f321b0a92d5934667ea65c,611e07ecdcc96256ae8d5b80,611e7d32f2854f8325f463e6,
,,,,,,,0,117,117,254,1,M, , , , ,space,1500,1.5,,001,2021-08-19_16h48.45.155,natb3,2021.2.3,Win32,60.34638827,60f321b0a92d5934667ea65c,611e07ecdcc96256ae8d5b80,611e7d32f2854f8325f463e6,
,,,,space,0.4692,,0,118,118,253,1,N, , , , ,space,2500,2.5,,001,2021-08-19_16h48.45.155,natb3,2021.2.3,Win32,60.34638827,60f321b0a92d5934667ea65c,611e07ecdcc96256ae8d5b80,611e7d32f2854f8325f463e6,
,,,,space,0.4853,,0,119,119,32,1,M, , , , ,space,1500,1.5,,001,2021-08-19_16h48.45.155,natb3,2021.2.3,Win32,60.34638827,60f321b0a92d5934667ea65c,611e07ecdcc96256ae8d5b80,611e7d32f2854f8325f463e6,
,,,,,,,0,120,120,311,1,X,1,2,7,3,,2500,2.5,,001,2021-08-19_16h48.45.155,natb3,2021.2.3,Win32,60.34638827,60f321b0a92d5934667ea65c,611e07ecdcc96256ae8d5b80,611e7d32f2854f8325f463e6,
,,,,space,0.6051,,0,121,121,237,1,S, , , , ,space,1500,1.5,,001,2021-08-19_16h48.45.155,natb3,2021.2.3,Win32,60.34638827,60f321b0a92d5934667ea65c,611e07ecdcc96256ae8d5b80,611e7d32f2854f8325f463e6,
,,,,space,0.5756,,0,122,122,110,1,I, , , , ,space,1500,1.5,,001,2021-08-19_16h48.45.155,natb3,2021.2.3,Win32,60.34638827,60f321b0a92d5934667ea65c,611e07ecdcc96256ae8d5b80,611e7d32f2854f8325f463e6,
,,,,,,,0,123,123,268,1,X,6, ,3, ,,2500,2.5,,001,2021-08-19_16h48.45.155,natb3,2021.2.3,Win32,60.34638827,60f321b0a92d5934667ea65c,611e07ecdcc96256ae8d5b80,611e7d32f2854f8325f463e6,
,,,,space,0.5287,,0,124,124,114,1,E, , , , ,space,2000,2,,001,2021-08-19_16h48.45.155,natb3,2021.2.3,Win32,60.34638827,60f321b0a92d5934667ea65c,611e07ecdcc96256ae8d5b80,611e7d32f2854f8325f463e6,
,,,,space,0.5738,,0,125,125,140,1,B, , , , ,space,2500,2.5,,001,2021-08-19_16h48.45.155,natb3,2021.2.3,Win32,60.34638827,60f321b0a92d5934667ea65c,611e07ecdcc96256ae8d5b80,611e7d32f2854f8325f463e6,
,,,,space,0.3923,,0,126,126,30,1,N, , , , ,space,2500,2.5,,001,2021-08-19_16h48.45.155,natb3,2021.2.3,Win32,60.34638827,60f321b0a92d5934667ea65c,611e07ecdcc96256ae8d5b80,611e7d32f2854f8325f463e6,
,,,,,,,0,127,127,107,1,X,9,3, ,2,,2000,2,,001,2021-08-19_16h48.45.155,natb3,2021.2.3,Win32,60.34638827,60f321b0a92d5934667ea65c,611e07ecdcc96256ae8d5b80,611e7d32f2854f8325f463e6,
,,,,space,0.49,,0,128,128,42,1,U, , , , ,space,1500,1.5,,001,2021-08-19_16h48.45.155,natb3,2021.2.3,Win32,60.34638827,60f321b0a92d5934667ea65c,611e07ecdcc96256ae8d5b80,611e7d32f2854f8325f463e6,
,,,,space,0.3738,,0,129,129,57,1,K, , , , ,space,2500,2.5,,001,2021-08-19_16h48.45.155,natb3,2021.2.3,Win32,60.34638827,60f321b0a92d5934667ea65c,611e07ecdcc96256ae8d5b80,611e7d32f2854f8325f463e6,
,,,,space,0.3324,,0,130,130,31,1,X, , , , ,,1500,1.5,,001,2021-08-19_16h48.45.155,natb3,2021.2.3,Win32,60.34638827,60f321b0a92d5934667ea65c,611e07ecdcc96256ae8d5b80,611e7d32f2854f8325f463e6,
,,,,space,0.5719,,0,131,131,37,1,E, , , , ,space,2500,2.5,,001,2021-08-19_16h48.45.155,natb3,2021.2.3,Win32,60.34638827,60f321b0a92d5934667ea65c,611e07ecdcc96256ae8d5b80,611e7d32f2854f8325f463e6,
,,,,space,0.4334,,0,132,132,306,1,D, , , , ,space,2000,2,,001,2021-08-19_16h48.45.155,natb3,2021.2.3,Win32,60.34638827,60f321b0a92d5934667ea65c,611e07ecdcc96256ae8d5b80,611e7d32f2854f8325f463e6,
,,,,space,0.4807,,0,133,133,21,1,J, , , , ,space,1500,1.5,,001,2021-08-19_16h48.45.155,natb3,2021.2.3,Win32,60.34638827,60f321b0a92d5934667ea65c,611e07ecdcc96256ae8d5b80,611e7d32f2854f8325f463e6,
,,,,space,0.5281,,0,134,134,72,1,T, , , , ,space,1500,1.5,,001,2021-08-19_16h48.45.155,natb3,2021.2.3,Win32,60.34638827,60f321b0a92d5934667ea65c,611e07ecdcc96256ae8d5b80,611e7d32f2854f8325f463e6,
,,,,,,,0,135,135,133,1,X, ,4, ,6,,2500,2.5,,001,2021-08-19_16h48.45.155,natb3,2021.2.3,Win32,60.34638827,60f321b0a92d5934667ea65c,611e07ecdcc96256ae8d5b80,611e7d32f2854f8325f463e6,
,,,,space,0.7998,,0,136,136,112,1,Q, , , , ,space,2500,2.5,,001,2021-08-19_16h48.45.155,natb3,2021.2.3,Win32,60.34638827,60f321b0a92d5934667ea65c,611e07ecdcc96256ae8d5b80,611e7d32f2854f8325f463e6,
,,,,space,0.3274,,0,137,137,281,1,Z, , , , ,space,1500,1.5,,001,2021-08-19_16h48.45.155,natb3,2021.2.3,Win32,60.34638827,60f321b0a92d5934667ea65c,611e07ecdcc96256ae8d5b80,611e7d32f2854f8325f463e6,
,,,,space,0.386,,0,138,138,62,1,V, , , , ,space,1500,1.5,,001,2021-08-19_16h48.45.155,natb3,2021.2.3,Win32,60.34638827,60f321b0a92d5934667ea65c,611e07ecdcc96256ae8d5b80,611e7d32f2854f8325f463e6,
,,,,space,0.3557,,0,139,139,76,1,I, , , , ,space,2000,2,,001,2021-08-19_16h48.45.155,natb3,2021.2.3,Win32,60.34638827,60f321b0a92d5934667ea65c,611e07ecdcc96256ae8d5b80,611e7d32f2854f8325f463e6,
,,,,,,,0,140,140,213,1,X, , , , ,,2500,2.5,,001,2021-08-19_16h48.45.155,natb3,2021.2.3,Win32,60.34638827,60f321b0a92d5934667ea65c,611e07ecdcc96256ae8d5b80,611e7d32f2854f8325f463e6,
,,,,space,0.7265,,0,141,141,149,1,R, , , , ,space,2000,2,,001,2021-08-19_16h48.45.155,natb3,2021.2.3,Win32,60.34638827,60f321b0a92d5934667ea65c,611e07ecdcc96256ae8d5b80,611e7d32f2854f8325f463e6,
,,,,,,,0,142,142,171,1,X, , , , ,,1500,1.5,,001,2021-08-19_16h48.45.155,natb3,2021.2.3,Win32,60.34638827,60f321b0a92d5934667ea65c,611e07ecdcc96256ae8d5b80,611e7d32f2854f8325f463e6,
,,,,space,0.4576,,0,143,143,99,1,N, , , , ,space,2500,2.5,,001,2021-08-19_16h48.45.155,natb3,2021.2.3,Win32,60.34638827,60f321b0a92d5934667ea65c,611e07ecdcc96256ae8d5b80,611e7d32f2854f8325f463e6,
,,,,space,0.6876,,0,144,144,293,1,R, , , , ,space,2500,2.5,,001,2021-08-19_16h48.45.155,natb3,2021.2.3,Win32,60.34638827,60f321b0a92d5934667ea65c,611e07ecdcc96256ae8d5b80,611e7d32f2854f8325f463e6,
,,,,,,,0,145,145,259,1,X,8, , ,3,,2500,2.5,,001,2021-08-19_16h48.45.155,natb3,2021.2.3,Win32,60.34638827,60f321b0a92d5934667ea65c,611e07ecdcc96256ae8d5b80,611e7d32f2854f8325f463e6,
,,,,space,0.8048,,0,146,146,58,1,L, , , , ,space,2000,2,,001,2021-08-19_16h48.45.155,natb3,2021.2.3,Win32,60.34638827,60f321b0a92d5934667ea65c,611e07ecdcc96256ae8d5b80,611e7d32f2854f8325f463e6,
,,,,,,,0,147,147,325,1,X, , , , ,,2500,2.5,,001,2021-08-19_16h48.45.155,natb3,2021.2.3,Win32,60.34638827,60f321b0a92d5934667ea65c,611e07ecdcc96256ae8d5b80,611e7d32f2854f8325f463e6,
,,,,space,0.5023,,0,148,148,280,1,L, , , , ,space,1500,1.5,,001,2021-08-19_16h48.45.155,natb3,2021.2.3,Win32,60.34638827,60f321b0a92d5934667ea65c,611e07ecdcc96256ae8d5b80,611e7d32f2854f8325f463e6,
,,,,space,0.3877,,0,149,149,148,1,X, , , , ,,2000,2,,001,2021-08-19_16h48.45.155,natb3,2021.2.3,Win32,60.34638827,60f321b0a92d5934667ea65c,611e07ecdcc96256ae8d5b80,611e7d32f2854f8325f463e6,
,,,,space,0.4757,,0,150,150,132,1,H, , , , ,space,2500,2.5,,001,2021-08-19_16h48.45.155,natb3,2021.2.3,Win32,60.34638827,60f321b0a92d5934667ea65c,611e07ecdcc96256ae8d5b80,611e7d32f2854f8325f463e6,
,,,,space,0.4698,,0,151,151,104,1,E, , , , ,space,2000,2,,001,2021-08-19_16h48.45.155,natb3,2021.2.3,Win32,60.34638827,60f321b0a92d5934667ea65c,611e07ecdcc96256ae8d5b80,611e7d32f2854f8325f463e6,
,,,,space,0.3998,,0,152,152,313,1,X, , , , ,,2500,2.5,,001,2021-08-19_16h48.45.155,natb3,2021.2.3,Win32,60.34638827,60f321b0a92d5934667ea65c,611e07ecdcc96256ae8d5b80,611e7d32f2854f8325f463e6,
,,,,space,0.7152,,0,153,153,185,1,Y, , , , ,space,2500,2.5,,001,2021-08-19_16h48.45.155,natb3,2021.2.3,Win32,60.34638827,60f321b0a92d5934667ea65c,611e07ecdcc96256ae8d5b80,611e7d32f2854f8325f463e6,
,,,,space,0.6366,,0,154,154,1,1,W, , , , ,space,2000,2,,001,2021-08-19_16h48.45.155,natb3,2021.2.3,Win32,60.34638827,60f321b0a92d5934667ea65c,611e07ecdcc96256ae8d5b80,611e7d32f2854f8325f463e6,
,,,,space,0.5655,,0,155,155,260,1,R, , , , ,space,2000,2,,001,2021-08-19_16h48.45.155,natb3,2021.2.3,Win32,60.34638827,60f321b0a92d5934667ea65c,611e07ecdcc96256ae8d5b80,611e7d32f2854f8325f463e6,
,,,,,,,0,156,156,15,1,X, , , , ,,1500,1.5,,001,2021-08-19_16h48.45.155,natb3,2021.2.3,Win32,60.34638827,60f321b0a92d5934667ea65c,611e07ecdcc96256ae8d5b80,611e7d32f2854f8325f463e6,
,,,,space,0.6332,,0,157,157,95,1,V, , , , ,space,1500,1.5,,001,2021-08-19_16h48.45.155,natb3,2021.2.3,Win32,60.34638827,60f321b0a92d5934667ea65c,611e07ecdcc96256ae8d5b80,611e7d32f2854f8325f463e6,
,,,,space,0.506,,0,158,158,150,1,T, , , , ,space,2500,2.5,,001,2021-08-19_16h48.45.155,natb3,2021.2.3,Win32,60.34638827,60f321b0a92d5934667ea65c,611e07ecdcc96256ae8d5b80,611e7d32f2854f8325f463e6,
,,,,space,0.3882,,0,159,159,242,1,H, , , , ,space,2500,2.5,,001,2021-08-19_16h48.45.155,natb3,2021.2.3,Win32,60.34638827,60f321b0a92d5934667ea65c,611e07ecdcc96256ae8d5b80,611e7d32f2854f8325f463e6,
,,,,space,0.301,,0,160,160,302,1,X, , , , ,,2000,2,,001,2021-08-19_16h48.45.155,natb3,2021.2.3,Win32,60.34638827,60f321b0a92d5934667ea65c,611e07ecdcc96256ae8d5b80,611e7d32f2854f8325f463e6,
,,,,,,,0,161,161,195,1,X, , , , ,,1500,1.5,,001,2021-08-19_16h48.45.155,natb3,2021.2.3,Win32,60.34638827,60f321b0a92d5934667ea65c,611e07ecdcc96256ae8d5b80,611e7d32f2854f8325f463e6,
,,,,space,0.482,,0,162,162,169,1,L, , , , ,space,2500,2.5,,001,2021-08-19_16h48.45.155,natb3,2021.2.3,Win32,60.34638827,60f321b0a92d5934667ea65c,611e07ecdcc96256ae8d5b80,611e7d32f2854f8325f463e6,
,,,,space,0.5252,,0,163,163,238,1,D, , , , ,space,1500,1.5,,001,2021-08-19_16h48.45.155,natb3,2021.2.3,Win32,60.34638827,60f321b0a92d5934667ea65c,611e07ecdcc96256ae8d5b80,611e7d32f2854f8325f463e6,
,,,,space,0.4427,,0,164,164,139,1,V, , , , ,space,2000,2,,001,2021-08-19_16h48.45.155,natb3,2021.2.3,Win32,60.34638827,60f321b0a92d5934667ea65c,611e07ecdcc96256ae8d5b80,611e7d32f2854f8325f463e6,
,,,,space,0.3527,,0,165,165,127,1,S, , , , ,space,2500,2.5,,001,2021-08-19_16h48.45.155,natb3,2021.2.3,Win32,60.34638827,60f321b0a92d5934667ea65c,611e07ecdcc96256ae8d5b80,611e7d32f2854f8325f463e6,
,,,,space,0.3202,,0,166,166,235,1,A, , , , ,space,1500,1.5,,001,2021-08-19_16h48.45.155,natb3,2021.2.3,Win32,60.34638827,60f321b0a92d5934667ea65c,611e07ecdcc96256ae8d5b80,611e7d32f2854f8325f463e6,
,,,,space,0.3424,space,0,167,167,258,1,E, , , , ,space,1500,1.5,,001,2021-08-19_16h48.45.155,natb3,2021.2.3,Win32,60.34638827,60f321b0a92d5934667ea65c,611e07ecdcc96256ae8d5b80,611e7d32f2854f8325f463e6,19.3006
,,,,space,0.5643,,0,168,168,312,1,K, , , , ,space,2000,2,,001,2021-08-19_16h48.45.155,natb3,2021.2.3,Win32,60.34638827,60f321b0a92d5934667ea65c,611e07ecdcc96256ae8d5b80,611e7d32f2854f8325f463e6,
,,,,,,,0,169,169,33,1,X, , , , ,,1500,1.5,,001,2021-08-19_16h48.45.155,natb3,2021.2.3,Win32,60.34638827,60f321b0a92d5934667ea65c,611e07ecdcc96256ae8d5b80,611e7d32f2854f8325f463e6,
,,,,space,0.5156,,0,170,170,220,1,U, , , , ,space,2500,2.5,,001,2021-08-19_16h48.45.155,natb3,2021.2.3,Win32,60.34638827,60f321b0a92d5934667ea65c,611e07ecdcc96256ae8d5b80,611e7d32f2854f8325f463e6,
,,,,space,0.4985,,0,171,171,63,1,B, , , , ,space,2000,2,,001,2021-08-19_16h48.45.155,natb3,2021.2.3,Win32,60.34638827,60f321b0a92d5934667ea65c,611e07ecdcc96256ae8d5b80,611e7d32f2854f8325f463e6,
,,,,,,,0,172,172,46,1,X, , , , ,,2000,2,,001,2021-08-19_16h48.45.155,natb3,2021.2.3,Win32,60.34638827,60f321b0a92d5934667ea65c,611e07ecdcc96256ae8d5b80,611e7d32f2854f8325f463e6,
,,,,space,0.6686,,0,173,173,34,1,Q, , , , ,space,2500,2.5,,001,2021-08-19_16h48.45.155,natb3,2021.2.3,Win32,60.34638827,60f321b0a92d5934667ea65c,611e07ecdcc96256ae8d5b80,611e7d32f2854f8325f463e6,
,,,,space,0.441,,0,174,174,131,1,G, , , , ,space,1500,1.5,,001,2021-08-19_16h48.45.155,natb3,2021.2.3,Win32,60.34638827,60f321b0a92d5934667ea65c,611e07ecdcc96256ae8d5b80,611e7d32f2854f8325f463e6,
,,,,space,0.4224,,0,175,175,227,1,T, , , , ,space,1500,1.5,,001,2021-08-19_16h48.45.155,natb3,2021.2.3,Win32,60.34638827,60f321b0a92d5934667ea65c,611e07ecdcc96256ae8d5b80,611e7d32f2854f8325f463e6,
,,,,space,0.3597,,0,176,176,177,1,M, , , , ,space,2500,2.5,,001,2021-08-19_16h48.45.155,natb3,2021.2.3,Win32,60.34638827,60f321b0a92d5934667ea65c,611e07ecdcc96256ae8d5b80,611e7d32f2854f8325f463e6,
,,,,space,0.3706,,0,177,177,134,1,J, , , , ,space,2000,2,,001,2021-08-19_16h48.45.155,natb3,2021.2.3,Win32,60.34638827,60f321b0a92d5934667ea65c,611e07ecdcc96256ae8d5b80,611e7d32f2854f8325f463e6,
,,,,space,0.3037,,0,178,178,223,1,Q, , , , ,space,2000,2,,001,2021-08-19_16h48.45.155,natb3,2021.2.3,Win32,60.34638827,60f321b0a92d5934667ea65c,611e07ecdcc96256ae8d5b80,611e7d32f2854f8325f463e6,
,,,,space,0.3718,,0,179,179,274,1,F, , , , ,space,2000,2,,001,2021-08-19_16h48.45.155,natb3,2021.2.3,Win32,60.34638827,60f321b0a92d5934667ea65c,611e07ecdcc96256ae8d5b80,611e7d32f2854f8325f463e6,
,,,,space,0.3709,,0,180,180,49,1,S, , , , ,space,1500,1.5,,001,2021-08-19_16h48.45.155,natb3,2021.2.3,Win32,60.34638827,60f321b0a92d5934667ea65c,611e07ecdcc96256ae8d5b80,611e7d32f2854f8325f463e6,
,,,,space,0.3129,,0,181,181,264,1,U, , , , ,space,2000,2,,001,2021-08-19_16h48.45.155,natb3,2021.2.3,Win32,60.34638827,60f321b0a92d5934667ea65c,611e07ecdcc96256ae8d5b80,611e7d32f2854f8325f463e6,
,,,,space,0.3255,,0,182,182,249,1,C, , , , ,space,2000,2,,001,2021-08-19_16h48.45.155,natb3,2021.2.3,Win32,60.34638827,60f321b0a92d5934667ea65c,611e07ecdcc96256ae8d5b80,611e7d32f2854f8325f463e6,
,,,,space,0.3503,,0,183,183,210,1,M, , , , ,space,1500,1.5,,001,2021-08-19_16h48.45.155,natb3,2021.2.3,Win32,60.34638827,60f321b0a92d5934667ea65c,611e07ecdcc96256ae8d5b80,611e7d32f2854f8325f463e6,
,,,,space,0.2931,,0,184,184,178,1,Q, , , , ,space,1500,1.5,,001,2021-08-19_16h48.45.155,natb3,2021.2.3,Win32,60.34638827,60f321b0a92d5934667ea65c,611e07ecdcc96256ae8d5b80,611e7d32f2854f8325f463e6,
,,,,space,0.2561,,0,185,185,84,1,X, , , , ,,2000,2,,001,2021-08-19_16h48.45.155,natb3,2021.2.3,Win32,60.34638827,60f321b0a92d5934667ea65c,611e07ecdcc96256ae8d5b80,611e7d32f2854f8325f463e6,
,,,,space,0.4077,,0,186,186,283,1,C, , , , ,space,1500,1.5,,001,2021-08-19_16h48.45.155,natb3,2021.2.3,Win32,60.34638827,60f321b0a92d5934667ea65c,611e07ecdcc96256ae8d5b80,611e7d32f2854f8325f463e6,
,,,,space,0.2761,,0,187,187,48,1,A, , , , ,space,2500,2.5,,001,2021-08-19_16h48.45.155,natb3,2021.2.3,Win32,60.34638827,60f321b0a92d5934667ea65c,611e07ecdcc96256ae8d5b80,611e7d32f2854f8325f463e6,
,,,,space,0.5326,,0,188,188,279,1,K, , , , ,space,2500,2.5,,001,2021-08-19_16h48.45.155,natb3,2021.2.3,Win32,60.34638827,60f321b0a92d5934667ea65c,611e07ecdcc96256ae8d5b80,611e7d32f2854f8325f463e6,
,,,,space,0.5229,,0,189,189,204,1,Z, , , , ,space,2000,2,,001,2021-08-19_16h48.45.155,natb3,2021.2.3,Win32,60.34638827,60f321b0a92d5934667ea65c,611e07ecdcc96256ae8d5b80,611e7d32f2854f8325f463e6,
,,,,,,,0,190,190,118,1,X, , , , ,,2000,2,,001,2021-08-19_16h48.45.155,natb3,2021.2.3,Win32,60.34638827,60f321b0a92d5934667ea65c,611e07ecdcc96256ae8d5b80,611e7d32f2854f8325f463e6,
,,,,space,0.4646,,0,191,191,189,1,O, , , , ,space,1500,1.5,,001,2021-08-19_16h48.45.155,natb3,2021.2.3,Win32,60.34638827,60f321b0a92d5934667ea65c,611e07ecdcc96256ae8d5b80,611e7d32f2854f8325f463e6,
,,,,,,,0,192,192,175,1,X,7, ,4,2,,1500,1.5,,001,2021-08-19_16h48.45.155,natb3,2021.2.3,Win32,60.34638827,60f321b0a92d5934667ea65c,611e07ecdcc96256ae8d5b80,611e7d32f2854f8325f463e6,
,,,,space,0.5978,,0,193,193,94,1,C, , , , ,space,2000,2,,001,2021-08-19_16h48.45.155,natb3,2021.2.3,Win32,60.34638827,60f321b0a92d5934667ea65c,611e07ecdcc96256ae8d5b80,611e7d32f2854f8325f463e6,
,,,,,,,0,194,194,7,1,X, , , , ,,1500,1.5,,001,2021-08-19_16h48.45.155,natb3,2021.2.3,Win32,60.34638827,60f321b0a92d5934667ea65c,611e07ecdcc96256ae8d5b80,611e7d32f2854f8325f463e6,
,,,,space,0.4497,,0,195,195,105,1,R, , , , ,space,2500,2.5,,001,2021-08-19_16h48.45.155,natb3,2021.2.3,Win32,60.34638827,60f321b0a92d5934667ea65c,611e07ecdcc96256ae8d5b80,611e7d32f2854f8325f463e6,
,,,,space,0.5177,,0,196,196,327,1,E, , , , ,space,1500,1.5,,001,2021-08-19_16h48.45.155,natb3,2021.2.3,Win32,60.34638827,60f321b0a92d5934667ea65c,611e07ecdcc96256ae8d5b80,611e7d32f2854f8325f463e6,
,,,,space,0.5722,,0,197,197,247,1,Z, , , , ,space,1500,1.5,,001,2021-08-19_16h48.45.155,natb3,2021.2.3,Win32,60.34638827,60f321b0a92d5934667ea65c,611e07ecdcc96256ae8d5b80,611e7d32f2854f8325f463e6,
,,,,space,0.3887,,0,198,198,221,1,I, , , , ,space,2500,2.5,,001,2021-08-19_16h48.45.155,natb3,2021.2.3,Win32,60.34638827,60f321b0a92d5934667ea65c,611e07ecdcc96256ae8d5b80,611e7d32f2854f8325f463e6,
,,,,space,0.4348,,0,199,199,292,1,E, , , , ,space,2000,2,,001,2021-08-19_16h48.45.155,natb3,2021.2.3,Win32,60.34638827,60f321b0a92d5934667ea65c,611e07ecdcc96256ae8d5b80,611e7d32f2854f8325f463e6,
,,,,space,0.4286,,0,200,200,124,1,P, , , , ,space,2000,2,,001,2021-08-19_16h48.45.155,natb3,2021.2.3,Win32,60.34638827,60f321b0a92d5934667ea65c,611e07ecdcc96256ae8d5b80,611e7d32f2854f8325f463e6,
,,,,space,0.3669,,0,201,201,257,1,W, , , , ,space,2000,2,,001,2021-08-19_16h48.45.155,natb3,2021.2.3,Win32,60.34638827,60f321b0a92d5934667ea65c,611e07ecdcc96256ae8d5b80,611e7d32f2854f8325f463e6,
,,,,space,0.3359,,0,202,202,323,1,M, , , , ,space,2500,2.5,,001,2021-08-19_16h48.45.155,natb3,2021.2.3,Win32,60.34638827,60f321b0a92d5934667ea65c,611e07ecdcc96256ae8d5b80,611e7d32f2854f8325f463e6,
,,,,space,0.2948,,0,203,203,41,1,Y, , , , ,space,2500,2.5,,001,2021-08-19_16h48.45.155,natb3,2021.2.3,Win32,60.34638827,60f321b0a92d5934667ea65c,611e07ecdcc96256ae8d5b80,611e7d32f2854f8325f463e6,
,,,,space,0.3227,,0,204,204,77,1,O, , , , ,space,2000,2,,001,2021-08-19_16h48.45.155,natb3,2021.2.3,Win32,60.34638827,60f321b0a92d5934667ea65c,611e07ecdcc96256ae8d5b80,611e7d32f2854f8325f463e6,
,,,,space,0.2639,,0,205,205,43,1,X, ,6, ,2,,2500,2.5,,001,2021-08-19_16h48.45.155,natb3,2021.2.3,Win32,60.34638827,60f321b0a92d5934667ea65c,611e07ecdcc96256ae8d5b80,611e7d32f2854f8325f463e6,
,,,,space,0.4888,,0,206,206,16,1,D, , , , ,space,1500,1.5,,001,2021-08-19_16h48.45.155,natb3,2021.2.3,Win32,60.34638827,60f321b0a92d5934667ea65c,611e07ecdcc96256ae8d5b80,611e7d32f2854f8325f463e6,
,,,,space,0.3526,,0,207,207,52,1,F, , , , ,space,1500,1.5,,001,2021-08-19_16h48.45.155,natb3,2021.2.3,Win32,60.34638827,60f321b0a92d5934667ea65c,611e07ecdcc96256ae8d5b80,611e7d32f2854f8325f463e6,
,,,,space,0.3789,,0,208,208,310,1,J, , , , ,space,2500,2.5,,001,2021-08-19_16h48.45.155,natb3,2021.2.3,Win32,60.34638827,60f321b0a92d5934667ea65c,611e07ecdcc96256ae8d5b80,611e7d32f2854f8325f463e6,
,,,,space,0.3607,,0,209,209,59,1,Z, , , , ,space,2000,2,,001,2021-08-19_16h48.45.155,natb3,2021.2.3,Win32,60.34638827,60f321b0a92d5934667ea65c,611e07ecdcc96256ae8d5b80,611e7d32f2854f8325f463e6,
,,,,space,0.3488,,0,210,210,225,1,E, , , , ,space,2000,2,,001,2021-08-19_16h48.45.155,natb3,2021.2.3,Win32,60.34638827,60f321b0a92d5934667ea65c,611e07ecdcc96256ae8d5b80,611e7d32f2854f8325f463e6,
,,,,space,0.3691,,0,211,211,100,1,M, , , , ,space,2000,2,,001,2021-08-19_16h48.45.155,natb3,2021.2.3,Win32,60.34638827,60f321b0a92d5934667ea65c,611e07ecdcc96256ae8d5b80,611e7d32f2854f8325f463e6,
,,,,space,0.3897,,0,212,212,22,1,K, , , , ,space,2000,2,,001,2021-08-19_16h48.45.155,natb3,2021.2.3,Win32,60.34638827,60f321b0a92d5934667ea65c,611e07ecdcc96256ae8d5b80,611e7d32f2854f8325f463e6,
,,,,space,0.3872,,0,213,213,300,1,O, , , , ,space,2500,2.5,,001,2021-08-19_16h48.45.155,natb3,2021.2.3,Win32,60.34638827,60f321b0a92d5934667ea65c,611e07ecdcc96256ae8d5b80,611e7d32f2854f8325f463e6,
,,,,,,,0,214,214,12,1,X, , , , ,,1500,1.5,,001,2021-08-19_16h48.45.155,natb3,2021.2.3,Win32,60.34638827,60f321b0a92d5934667ea65c,611e07ecdcc96256ae8d5b80,611e7d32f2854f8325f463e6,
,,,,space,0.3727,,0,215,215,156,1,P, , , , ,space,1500,1.5,,001,2021-08-19_16h48.45.155,natb3,2021.2.3,Win32,60.34638827,60f321b0a92d5934667ea65c,611e07ecdcc96256ae8d5b80,611e7d32f2854f8325f463e6,
,,,,space,0.6566,,0,216,216,170,1,Z, , , , ,space,2000,2,,001,2021-08-19_16h48.45.155,natb3,2021.2.3,Win32,60.34638827,60f321b0a92d5934667ea65c,611e07ecdcc96256ae8d5b80,611e7d32f2854f8325f463e6,
,,,,space,0.3572,,0,217,217,168,1,X, , , , ,,2500,2.5,,001,2021-08-19_16h48.45.155,natb3,2021.2.3,Win32,60.34638827,60f321b0a92d5934667ea65c,611e07ecdcc96256ae8d5b80,611e7d32f2854f8325f463e6,
,,,,space,0.7236,,0,218,218,154,1,I, , , , ,space,2500,2.5,,001,2021-08-19_16h48.45.155,natb3,2021.2.3,Win32,60.34638827,60f321b0a92d5934667ea65c,611e07ecdcc96256ae8d5b80,611e7d32f2854f8325f463e6,
,,,,space,0.3501,,0,219,219,164,1,H, , , , ,space,2500,2.5,,001,2021-08-19_16h48.45.155,natb3,2021.2.3,Win32,60.34638827,60f321b0a92d5934667ea65c,611e07ecdcc96256ae8d5b80,611e7d32f2854f8325f463e6,
,,,,space,0.7886,,0,220,220,111,1,O, , , , ,space,2000,2,,001,2021-08-19_16h48.45.155,natb3,2021.2.3,Win32,60.34638827,60f321b0a92d5934667ea65c,611e07ecdcc96256ae8d5b80,611e7d32f2854f8325f463e6,
,,,,,,,0,221,221,282,1,X, , , , ,,2500,2.5,,001,2021-08-19_16h48.45.155,natb3,2021.2.3,Win32,60.34638827,60f321b0a92d5934667ea65c,611e07ecdcc96256ae8d5b80,611e7d32f2854f8325f463e6,
,,,,,,,0,222,222,138,1,X,8,5, ,3,,2000,2,,001,2021-08-19_16h48.45.155,natb3,2021.2.3,Win32,60.34638827,60f321b0a92d5934667ea65c,611e07ecdcc96256ae8d5b80,611e7d32f2854f8325f463e6,
,,,,space,0.5696,,0,223,223,304,1,S, , , , ,space,2000,2,,001,2021-08-19_16h48.45.155,natb3,2021.2.3,Win32,60.34638827,60f321b0a92d5934667ea65c,611e07ecdcc96256ae8d5b80,611e7d32f2854f8325f463e6,
,,,,,,,0,224,224,207,1,X,9, ,2, ,,2500,2.5,,001,2021-08-19_16h48.45.155,natb3,2021.2.3,Win32,60.34638827,60f321b0a92d5934667ea65c,611e07ecdcc96256ae8d5b80,611e7d32f2854f8325f463e6,
,,,,space,0.5698,,0,225,225,161,1,F, , , , ,space,1500,1.5,,001,2021-08-19_16h48.45.155,natb3,2021.2.3,Win32,60.34638827,60f321b0a92d5934667ea65c,611e07ecdcc96256ae8d5b80,611e7d32f2854f8325f463e6,
,,,,,,,0,226,226,322,1,X, , ,1,6,,2000,2,,001,2021-08-19_16h48.45.155,natb3,2021.2.3,Win32,60.34638827,60f321b0a92d5934667ea65c,611e07ecdcc96256ae8d5b80,611e7d32f2854f8325f463e6,
,,,,space,0.665,,0,227,227,245,1,K, , , , ,space,2000,2,,001,2021-08-19_16h48.45.155,natb3,2021.2.3,Win32,60.34638827,60f321b0a92d5934667ea65c,611e07ecdcc96256ae8d5b80,611e7d32f2854f8325f463e6,
,,,,space,0.5619,,0,228,228,67,1,Q, , , , ,space,2000,2,,001,2021-08-19_16h48.45.155,natb3,2021.2.3,Win32,60.34638827,60f321b0a92d5934667ea65c,611e07ecdcc96256ae8d5b80,611e7d32f2854f8325f463e6,
,,,,space,0.5576,,0,229,229,137,1,C, , , , ,space,2500,2.5,,001,2021-08-19_16h48.45.155,natb3,2021.2.3,Win32,60.34638827,60f321b0a92d5934667ea65c,611e07ecdcc96256ae8d5b80,611e7d32f2854f8325f463e6,
,,,,space,0.6354,,0,230,230,92,1,Z, , , , ,space,1500,1.5,,001,2021-08-19_16h48.45.155,natb3,2021.2.3,Win32,60.34638827,60f321b0a92d5934667ea65c,611e07ecdcc96256ae8d5b80,611e7d32f2854f8325f463e6,
,,,,space,0.5644,,0,231,231,87,1,H, , , , ,space,1500,1.5,,001,2021-08-19_16h48.45.155,natb3,2021.2.3,Win32,60.34638827,60f321b0a92d5934667ea65c,611e07ecdcc96256ae8d5b80,611e7d32f2854f8325f463e6,
,,,,space,0.6545,,0,232,232,172,1,C, , , , ,space,1500,1.5,,001,2021-08-19_16h48.45.155,natb3,2021.2.3,Win32,60.34638827,60f321b0a92d5934667ea65c,611e07ecdcc96256ae8d5b80,611e7d32f2854f8325f463e6,
,,,,space,0.5443,,0,233,233,119,1,Y, , , , ,space,2500,2.5,,001,2021-08-19_16h48.45.155,natb3,2021.2.3,Win32,60.34638827,60f321b0a92d5934667ea65c,611e07ecdcc96256ae8d5b80,611e7d32f2854f8325f463e6,
,,,,space,0.6274,,0,234,234,25,1,Z, , , , ,space,2500,2.5,,001,2021-08-19_16h48.45.155,natb3,2021.2.3,Win32,60.34638827,60f321b0a92d5934667ea65c,611e07ecdcc96256ae8d5b80,611e7d32f2854f8325f463e6,
,,,,space,0.496,,0,235,235,199,1,J, , , , ,space,2500,2.5,,001,2021-08-19_16h48.45.155,natb3,2021.2.3,Win32,60.34638827,60f321b0a92d5934667ea65c,611e07ecdcc96256ae8d5b80,611e7d32f2854f8325f463e6,
,,,,,,,0,236,236,318,1,X, , , , ,,1500,1.5,,001,2021-08-19_16h48.45.155,natb3,2021.2.3,Win32,60.34638827,60f321b0a92d5934667ea65c,611e07ecdcc96256ae8d5b80,611e7d32f2854f8325f463e6,
,,,,,,,0,237,237,187,1,X, ,3,7,4,,1500,1.5,,001,2021-08-19_16h48.45.155,natb3,2021.2.3,Win32,60.34638827,60f321b0a92d5934667ea65c,611e07ecdcc96256ae8d5b80,611e7d32f2854f8325f463e6,
,,,,space,0.6311,,0,238,238,184,1,T, , , , ,space,2000,2,,001,2021-08-19_16h48.45.155,natb3,2021.2.3,Win32,60.34638827,60f321b0a92d5934667ea65c,611e07ecdcc96256ae8d5b80,611e7d32f2854f8325f463e6,
,,,,,,,0,239,239,287,1,X, ,2, ,9,,2000,2,,001,2021-08-19_16h48.45.155,natb3,2021.2.3,Win32,60.34638827,60f321b0a92d5934667ea65c,611e07ecdcc96256ae8d5b80,611e7d32f2854f8325f463e6,
,,,,space,0.6466,,0,240,240,165,1,J, , , , ,space,2500,2.5,,001,2021-08-19_16h48.45.155,natb3,2021.2.3,Win32,60.34638827,60f321b0a92d5934667ea65c,611e07ecdcc96256ae8d5b80,611e7d32f2854f8325f463e6,
,,,,,,,0,241,241,69,1,X, , , , ,,1500,1.5,,001,2021-08-19_16h48.45.155,natb3,2021.2.3,Win32,60.34638827,60f321b0a92d5934667ea65c,611e07ecdcc96256ae8d5b80,611e7d32f2854f8325f463e6,
,,,,space,0.8877,,0,242,242,244,1,J, , , , ,space,1500,1.5,,001,2021-08-19_16h48.45.155,natb3,2021.2.3,Win32,60.34638827,60f321b0a92d5934667ea65c,611e07ecdcc96256ae8d5b80,611e7d32f2854f8325f463e6,
,,,,space,0.7334,,0,243,243,190,1,P, , , , ,space,2000,2,,001,2021-08-19_16h48.45.155,natb3,2021.2.3,Win32,60.34638827,60f321b0a92d5934667ea65c,611e07ecdcc96256ae8d5b80,611e7d32f2854f8325f463e6,
,,,,space,0.6325,,0,244,244,101,1,Q, , , , ,space,2500,2.5,,001,2021-08-19_16h48.45.155,natb3,2021.2.3,Win32,60.34638827,60f321b0a92d5934667ea65c,611e07ecdcc96256ae8d5b80,611e7d32f2854f8325f463e6,
,,,,space,0.8876,,0,245,245,19,1,G, , , , ,space,1500,1.5,,001,2021-08-19_16h48.45.155,natb3,2021.2.3,Win32,60.34638827,60f321b0a92d5934667ea65c,611e07ecdcc96256ae8d5b80,611e7d32f2854f8325f463e6,
,,,,space,0.4809,,0,246,246,159,1,S, , , , ,space,2500,2.5,,001,2021-08-19_16h48.45.155,natb3,2021.2.3,Win32,60.34638827,60f321b0a92d5934667ea65c,611e07ecdcc96256ae8d5b80,611e7d32f2854f8325f463e6,
,,,,space,0.6272,,0,247,247,123,1,O, , , , ,space,1500,1.5,,001,2021-08-19_16h48.45.155,natb3,2021.2.3,Win32,60.34638827,60f321b0a92d5934667ea65c,611e07ecdcc96256ae8d5b80,611e7d32f2854f8325f463e6,
,,,,space,0.4438,,0,248,248,113,1,W, , , , ,space,2500,2.5,,001,2021-08-19_16h48.45.155,natb3,2021.2.3,Win32,60.34638827,60f321b0a92d5934667ea65c,611e07ecdcc96256ae8d5b80,611e7d32f2854f8325f463e6,
,,,,space,0.3667,,0,249,249,196,1,F, , , , ,space,1500,1.5,,001,2021-08-19_16h48.45.155,natb3,2021.2.3,Win32,60.34638827,60f321b0a92d5934667ea65c,611e07ecdcc96256ae8d5b80,611e7d32f2854f8325f463e6,
,,,,space,0.3578,,0,250,250,331,1,Y, , , , ,space,2500,2.5,,001,2021-08-19_16h48.45.155,natb3,2021.2.3,Win32,60.34638827,60f321b0a92d5934667ea65c,611e07ecdcc96256ae8d5b80,611e7d32f2854f8325f463e6,
,,,,space,0.6122,,0,251,251,222,1,O, , , , ,space,2000,2,,001,2021-08-19_16h48.45.155,natb3,2021.2.3,Win32,60.34638827,60f321b0a92d5934667ea65c,611e07ecdcc96256ae8d5b80,611e7d32f2854f8325f463e6,
,,,,,,,0,252,252,153,1,X,4,7, ,6,,2000,2,,001,2021-08-19_16h48.45.155,natb3,2021.2.3,Win32,60.34638827,60f321b0a92d5934667ea65c,611e07ecdcc96256ae8d5b80,611e7d32f2854f8325f463e6,
,,,,,,,0,253,253,330,1,T, , , , ,space,2500,2.5,,001,2021-08-19_16h48.45.155,natb3,2021.2.3,Win32,60.34638827,60f321b0a92d5934667ea65c,611e07ecdcc96256ae8d5b80,611e7d32f2854f8325f463e6,
,,,,space,0.6463,,0,254,254,0,1,Q, , , , ,space,1500,1.5,,001,2021-08-19_16h48.45.155,natb3,2021.2.3,Win32,60.34638827,60f321b0a92d5934667ea65c,611e07ecdcc96256ae8d5b80,611e7d32f2854f8325f463e6,
,,,,space,0.5159,,0,255,255,261,1,T, , , , ,space,2000,2,,001,2021-08-19_16h48.45.155,natb3,2021.2.3,Win32,60.34638827,60f321b0a92d5934667ea65c,611e07ecdcc96256ae8d5b80,611e7d32f2854f8325f463e6,
,,,,,,,0,256,256,288,1,M, , , , ,space,1500,1.5,,001,2021-08-19_16h48.45.155,natb3,2021.2.3,Win32,60.34638827,60f321b0a92d5934667ea65c,611e07ecdcc96256ae8d5b80,611e7d32f2854f8325f463e6,
,,,,,,,0,257,257,200,1,X,7, ,5,3,,1500,1.5,,001,2021-08-19_16h48.45.155,natb3,2021.2.3,Win32,60.34638827,60f321b0a92d5934667ea65c,611e07ecdcc96256ae8d5b80,611e7d32f2854f8325f463e6,
,,,,space,0.6983,,0,258,258,296,1,Y, , , , ,space,2500,2.5,,001,2021-08-19_16h48.45.155,natb3,2021.2.3,Win32,60.34638827,60f321b0a92d5934667ea65c,611e07ecdcc96256ae8d5b80,611e7d32f2854f8325f463e6,
,,,,space,0.6567,,0,259,259,109,1,U, , , , ,space,1500,1.5,,001,2021-08-19_16h48.45.155,natb3,2021.2.3,Win32,60.34638827,60f321b0a92d5934667ea65c,611e07ecdcc96256ae8d5b80,611e7d32f2854f8325f463e6,
,,,,space,0.4659,,0,260,260,309,1,H, , , , ,space,2500,2.5,,001,2021-08-19_16h48.45.155,natb3,2021.2.3,Win32,60.34638827,60f321b0a92d5934667ea65c,611e07ecdcc96256ae8d5b80,611e7d32f2854f8325f463e6,
,,,,space,0.5316,,0,261,261,286,1,N, , , , ,space,1500,1.5,,001,2021-08-19_16h48.45.155,natb3,2021.2.3,Win32,60.34638827,60f321b0a92d5934667ea65c,611e07ecdcc96256ae8d5b80,611e7d32f2854f8325f463e6,
,,,,space,0.4577,,0,262,262,193,1,S, , , , ,space,2500,2.5,,001,2021-08-19_16h48.45.155,natb3,2021.2.3,Win32,60.34638827,60f321b0a92d5934667ea65c,611e07ecdcc96256ae8d5b80,611e7d32f2854f8325f463e6,
,,,,space,0.6154,,0,263,263,135,1,K, , , , ,space,1500,1.5,,001,2021-08-19_16h48.45.155,natb3,2021.2.3,Win32,60.34638827,60f321b0a92d5934667ea65c,611e07ecdcc96256ae8d5b80,611e7d32f2854f8325f463e6,
,,,,,,,0,264,264,125,1,X, , , , ,,2000,2,,001,2021-08-19_16h48.45.155,natb3,2021.2.3,Win32,60.34638827,60f321b0a92d5934667ea65c,611e07ecdcc96256ae8d5b80,611e7d32f2854f8325f463e6,
,,,,space,0.552,,0,265,265,176,1,N, , , , ,space,1500,1.5,,001,2021-08-19_16h48.45.155,natb3,2021.2.3,Win32,60.34638827,60f321b0a92d5934667ea65c,611e07ecdcc96256ae8d5b80,611e7d32f2854f8325f463e6,
,,,,space,0.5015,,0,266,266,297,1,U, , , , ,space,2000,2,,001,2021-08-19_16h48.45.155,natb3,2021.2.3,Win32,60.34638827,60f321b0a92d5934667ea65c,611e07ecdcc96256ae8d5b80,611e7d32f2854f8325f463e6,
,,,,space,0.5314,,0,267,267,240,1,F, , , , ,space,2500,2.5,,001,2021-08-19_16h48.45.155,natb3,2021.2.3,Win32,60.34638827,60f321b0a92d5934667ea65c,611e07ecdcc96256ae8d5b80,611e7d32f2854f8325f463e6,
,,,,space,0.5939,,0,268,268,90,1,K, , , , ,space,2000,2,,001,2021-08-19_16h48.45.155,natb3,2021.2.3,Win32,60.34638827,60f321b0a92d5934667ea65c,611e07ecdcc96256ae8d5b80,611e7d32f2854f8325f463e6,
,,,,space,0.8277,,0,269,269,47,1,P, , , , ,space,2000,2,,001,2021-08-19_16h48.45.155,natb3,2021.2.3,Win32,60.34638827,60f321b0a92d5934667ea65c,611e07ecdcc96256ae8d5b80,611e7d32f2854f8325f463e6,
,,,,,,,0,270,270,129,1,X,2,3,5, ,,1500,1.5,,001,2021-08-19_16h48.45.155,natb3,2021.2.3,Win32,60.34638827,60f321b0a92d5934667ea65c,611e07ecdcc96256ae8d5b80,611e7d32f2854f8325f463e6,
,,,,,,,0,271,271,158,1,X, , , , ,,1500,1.5,,001,2021-08-19_16h48.45.155,natb3,2021.2.3,Win32,60.34638827,60f321b0a92d5934667ea65c,611e07ecdcc96256ae8d5b80,611e7d32f2854f8325f463e6,
,,,,space,0.5503,,0,272,272,163,1,G, , , , ,space,2500,2.5,,001,2021-08-19_16h48.45.155,natb3,2021.2.3,Win32,60.34638827,60f321b0a92d5934667ea65c,611e07ecdcc96256ae8d5b80,611e7d32f2854f8325f463e6,
,,,,space,0.8785,,0,273,273,326,1,W, , , , ,space,2000,2,,001,2021-08-19_16h48.45.155,natb3,2021.2.3,Win32,60.34638827,60f321b0a92d5934667ea65c,611e07ecdcc96256ae8d5b80,611e7d32f2854f8325f463e6,
,,,,space,0.4315,,0,274,274,117,1,T, , , , ,space,2500,2.5,,001,2021-08-19_16h48.45.155,natb3,2021.2.3,Win32,60.34638827,60f321b0a92d5934667ea65c,611e07ecdcc96256ae8d5b80,611e7d32f2854f8325f463e6,
,,,,space,0.5347,,0,275,275,38,1,R, , , , ,space,2500,2.5,,001,2021-08-19_16h48.45.155,natb3,2021.2.3,Win32,60.34638827,60f321b0a92d5934667ea65c,611e07ecdcc96256ae8d5b80,611e7d32f2854f8325f463e6,
,,,,,,,0,276,276,141,1,X,1, ,4,6,,1500,1.5,,001,2021-08-19_16h48.45.155,natb3,2021.2.3,Win32,60.34638827,60f321b0a92d5934667ea65c,611e07ecdcc96256ae8d5b80,611e7d32f2854f8325f463e6,
,,,,,,,0,277,277,18,1,X, ,2,5,8,,2500,2.5,,001,2021-08-19_16h48.45.155,natb3,2021.2.3,Win32,60.34638827,60f321b0a92d5934667ea65c,611e07ecdcc96256ae8d5b80,611e7d32f2854f8325f463e6,
,,,,space,0.8821,,0,278,278,206,1,V, , , , ,space,2000,2,,001,2021-08-19_16h48.45.155,natb3,2021.2.3,Win32,60.34638827,60f321b0a92d5934667ea65c,611e07ecdcc96256ae8d5b80,611e7d32f2854f8325f463e6,
,,,,,,,0,279,279,252,1,X,3, ,6,9,,2000,2,,001,2021-08-19_16h48.45.155,natb3,2021.2.3,Win32,60.34638827,60f321b0a92d5934667ea65c,611e07ecdcc96256ae8d5b80,611e7d32f2854f8325f463e6,
,,,,,,,0,280,280,333,1,I, , , , ,space,1500,1.5,,001,2021-08-19_16h48.45.155,natb3,2021.2.3,Win32,60.34638827,60f321b0a92d5934667ea65c,611e07ecdcc96256ae8d5b80,611e7d32f2854f8325f463e6,
,,,,space,0.5268,,0,281,281,2,1,E, , , , ,space,2500,2.5,,001,2021-08-19_16h48.45.155,natb3,2021.2.3,Win32,60.34638827,60f321b0a92d5934667ea65c,611e07ecdcc96256ae8d5b80,611e7d32f2854f8325f463e6,
,,,,,,,0,282,282,277,1,X,8,5, ,2,,2000,2,,001,2021-08-19_16h48.45.155,natb3,2021.2.3,Win32,60.34638827,60f321b0a92d5934667ea65c,611e07ecdcc96256ae8d5b80,611e7d32f2854f8325f463e6,
,,,,space,0.8223,,0,283,283,267,1,P, , , , ,space,2000,2,,001,2021-08-19_16h48.45.155,natb3,2021.2.3,Win32,60.34638827,60f321b0a92d5934667ea65c,611e07ecdcc96256ae8d5b80,611e7d32f2854f8325f463e6,
,,,,space,0.8485,,0,284,284,17,1,F, , , , ,space,2500,2.5,,001,2021-08-19_16h48.45.155,natb3,2021.2.3,Win32,60.34638827,60f321b0a92d5934667ea65c,611e07ecdcc96256ae8d5b80,611e7d32f2854f8325f463e6,
,,,,,,,0,285,285,155,1,O, , , , ,space,1500,1.5,,001,2021-08-19_16h48.45.155,natb3,2021.2.3,Win32,60.34638827,60f321b0a92d5934667ea65c,611e07ecdcc96256ae8d5b80,611e7d32f2854f8325f463e6,
,,,,space,0.648,,0,286,286,201,1,K, , , , ,space,1500,1.5,,001,2021-08-19_16h48.45.155,natb3,2021.2.3,Win32,60.34638827,60f321b0a92d5934667ea65c,611e07ecdcc96256ae8d5b80,611e7d32f2854f8325f463e6,
,,,,space,0.9397,,0,287,287,6,1,Y, , , , ,space,2500,2.5,,001,2021-08-19_16h48.45.155,natb3,2021.2.3,Win32,60.34638827,60f321b0a92d5934667ea65c,611e07ecdcc96256ae8d5b80,611e7d32f2854f8325f463e6,
,,,,space,0.5726,,0,288,288,205,1,C, , , , ,space,2000,2,,001,2021-08-19_16h48.45.155,natb3,2021.2.3,Win32,60.34638827,60f321b0a92d5934667ea65c,611e07ecdcc96256ae8d5b80,611e7d32f2854f8325f463e6,
,,,,space,0.5346,,0,289,289,103,1,W, , , , ,space,2000,2,,001,2021-08-19_16h48.45.155,natb3,2021.2.3,Win32,60.34638827,60f321b0a92d5934667ea65c,611e07ecdcc96256ae8d5b80,611e7d32f2854f8325f463e6,
,,,,space,0.5031,,0,290,290,255,1,X, , , , ,,1500,1.5,,001,2021-08-19_16h48.45.155,natb3,2021.2.3,Win32,60.34638827,60f321b0a92d5934667ea65c,611e07ecdcc96256ae8d5b80,611e7d32f2854f8325f463e6,
,,,,,,,0,291,291,27,1,X,5, ,1,3,,1500,1.5,,001,2021-08-19_16h48.45.155,natb3,2021.2.3,Win32,60.34638827,60f321b0a92d5934667ea65c,611e07ecdcc96256ae8d5b80,611e7d32f2854f8325f463e6,
,,,,space,0.5369,,0,292,292,316,1,Z, , , , ,space,1500,1.5,,001,2021-08-19_16h48.45.155,natb3,2021.2.3,Win32,60.34638827,60f321b0a92d5934667ea65c,611e07ecdcc96256ae8d5b80,611e7d32f2854f8325f463e6,
,,,,space,0.5235,,0,293,293,188,1,I, , , , ,space,2500,2.5,,001,2021-08-19_16h48.45.155,natb3,2021.2.3,Win32,60.34638827,60f321b0a92d5934667ea65c,611e07ecdcc96256ae8d5b80,611e7d32f2854f8325f463e6,
,,,,,,,0,294,294,271,1,X, , , , ,,2500,2.5,,001,2021-08-19_16h48.45.155,natb3,2021.2.3,Win32,60.34638827,60f321b0a92d5934667ea65c,611e07ecdcc96256ae8d5b80,611e7d32f2854f8325f463e6,
,,,,space,0.5723,,0,295,295,144,1,Q, , , , ,space,2500,2.5,,001,2021-08-19_16h48.45.155,natb3,2021.2.3,Win32,60.34638827,60f321b0a92d5934667ea65c,611e07ecdcc96256ae8d5b80,611e7d32f2854f8325f463e6,
,,,,,,,0,296,296,74,1,X, ,4,3,2,,1500,1.5,,001,2021-08-19_16h48.45.155,natb3,2021.2.3,Win32,60.34638827,60f321b0a92d5934667ea65c,611e07ecdcc96256ae8d5b80,611e7d32f2854f8325f463e6,
,,,,space,0.5223,,0,297,297,126,1,A, , , , ,space,2500,2.5,,001,2021-08-19_16h48.45.155,natb3,2021.2.3,Win32,60.34638827,60f321b0a92d5934667ea65c,611e07ecdcc96256ae8d5b80,611e7d32f2854f8325f463e6,
,,,,space,0.6427,,0,298,298,167,1,K, , , , ,space,1500,1.5,,001,2021-08-19_16h48.45.155,natb3,2021.2.3,Win32,60.34638827,60f321b0a92d5934667ea65c,611e07ecdcc96256ae8d5b80,611e7d32f2854f8325f463e6,
,,,,space,0.6441,,0,299,299,194,1,D, , , , ,space,2000,2,,001,2021-08-19_16h48.45.155,natb3,2021.2.3,Win32,60.34638827,60f321b0a92d5934667ea65c,611e07ecdcc96256ae8d5b80,611e7d32f2854f8325f463e6,
,,,,space,0.6196,,0,300,300,65,1,M, , , , ,space,1500,1.5,,001,2021-08-19_16h48.45.155,natb3,2021.2.3,Win32,60.34638827,60f321b0a92d5934667ea65c,611e07ecdcc96256ae8d5b80,611e7d32f2854f8325f463e6,
,,,,space,0.575,,0,301,301,55,1,H, , , , ,space,2500,2.5,,001,2021-08-19_16h48.45.155,natb3,2021.2.3,Win32,60.34638827,60f321b0a92d5934667ea65c,611e07ecdcc96256ae8d5b80,611e7d32f2854f8325f463e6,
,,,,space,0.5742,,0,302,302,142,1,N, , , , ,space,2500,2.5,,001,2021-08-19_16h48.45.155,natb3,2021.2.3,Win32,60.34638827,60f321b0a92d5934667ea65c,611e07ecdcc96256ae8d5b80,611e7d32f2854f8325f463e6,
,,,,space,0.588,,0,303,303,157,1,A, , , , ,space,2500,2.5,,001,2021-08-19_16h48.45.155,natb3,2021.2.3,Win32,60.34638827,60f321b0a92d5934667ea65c,611e07ecdcc96256ae8d5b80,611e7d32f2854f8325f463e6,
,,,,,,,0,304,304,233,1,X, ,2, ,5,,1500,1.5,,001,2021-08-19_16h48.45.155,natb3,2021.2.3,Win32,60.34638827,60f321b0a92d5934667ea65c,611e07ecdcc96256ae8d5b80,611e7d32f2854f8325f463e6,
,,,,space,0.5253,,0,305,305,147,1,E, , , , ,space,2000,2,,001,2021-08-19_16h48.45.155,natb3,2021.2.3,Win32,60.34638827,60f321b0a92d5934667ea65c,611e07ecdcc96256ae8d5b80,611e7d32f2854f8325f463e6,
,,,,,,,0,306,306,122,1,X,1, , ,8,,1500,1.5,,001,2021-08-19_16h48.45.155,natb3,2021.2.3,Win32,60.34638827,60f321b0a92d5934667ea65c,611e07ecdcc96256ae8d5b80,611e7d32f2854f8325f463e6,
,,,,space,0.8513,,0,307,307,24,1,L, , , , ,space,2500,2.5,,001,2021-08-19_16h48.45.155,natb3,2021.2.3,Win32,60.34638827,60f321b0a92d5934667ea65c,611e07ecdcc96256ae8d5b80,611e7d32f2854f8325f463e6,
,,,,,,,0,308,308,66,1,X, ,4,7, ,,2000,2,,001,2021-08-19_16h48.45.155,natb3,2021.2.3,Win32,60.34638827,60f321b0a92d5934667ea65c,611e07ecdcc96256ae8d5b80,611e7d32f2854f8325f463e6,
,,,,,,,0,309,309,251,1,B, , , , ,space,1500,1.5,,001,2021-08-19_16h48.45.155,natb3,2021.2.3,Win32,60.34638827,60f321b0a92d5934667ea65c,611e07ecdcc96256ae8d5b80,611e7d32f2854f8325f463e6,
,,,,,,,0,310,310,162,1,X,1,6, ,2,,1500,1.5,,001,2021-08-19_16h48.45.155,natb3,2021.2.3,Win32,60.34638827,60f321b0a92d5934667ea65c,611e07ecdcc96256ae8d5b80,611e7d32f2854f8325f463e6,
,,,,space,0.6296,,0,311,311,29,1,B, , , , ,space,1500,1.5,,001,2021-08-19_16h48.45.155,natb3,2021.2.3,Win32,60.34638827,60f321b0a92d5934667ea65c,611e07ecdcc96256ae8d5b80,611e7d32f2854f8325f463e6,
,,,,space,0.4555,,0,312,312,317,1,C, , , , ,space,2000,2,,001,2021-08-19_16h48.45.155,natb3,2021.2.3,Win32,60.34638827,60f321b0a92d5934667ea65c,611e07ecdcc96256ae8d5b80,611e7d32f2854f8325f463e6,
,,,,space,0.5162,,0,313,313,250,1,V, , , , ,space,2000,2,,001,2021-08-19_16h48.45.155,natb3,2021.2.3,Win32,60.34638827,60f321b0a92d5934667ea65c,611e07ecdcc96256ae8d5b80,611e7d32f2854f8325f463e6,
,,,,space,0.5654,,0,314,314,8,1,U, , , , ,space,1500,1.5,,001,2021-08-19_16h48.45.155,natb3,2021.2.3,Win32,60.34638827,60f321b0a92d5934667ea65c,611e07ecdcc96256ae8d5b80,611e7d32f2854f8325f463e6,
,,,,space,0.4068,,0,315,315,81,1,S, , , , ,space,2000,2,,001,2021-08-19_16h48.45.155,natb3,2021.2.3,Win32,60.34638827,60f321b0a92d5934667ea65c,611e07ecdcc96256ae8d5b80,611e7d32f2854f8325f463e6,
,,,,space,0.4299,,0,316,316,224,1,W, , , , ,space,1500,1.5,,001,2021-08-19_16h48.45.155,natb3,2021.2.3,Win32,60.34638827,60f321b0a92d5934667ea65c,611e07ecdcc96256ae8d5b80,611e7d32f2854f8325f463e6,
,,,,space,0.4096,,0,317,317,214,1,W, , , , ,space,2000,2,,001,2021-08-19_16h48.45.155,natb3,2021.2.3,Win32,60.34638827,60f321b0a92d5934667ea65c,611e07ecdcc96256ae8d5b80,611e7d32f2854f8325f463e6,
,,,,,,,0,318,318,82,1,X,4,6,1,7,,2000,2,,001,2021-08-19_16h48.45.155,natb3,2021.2.3,Win32,60.34638827,60f321b0a92d5934667ea65c,611e07ecdcc96256ae8d5b80,611e7d32f2854f8325f463e6,
,,,,,,,0,319,319,93,1,X,5, ,7, ,,2500,2.5,,001,2021-08-19_16h48.45.155,natb3,2021.2.3,Win32,60.34638827,60f321b0a92d5934667ea65c,611e07ecdcc96256ae8d5b80,611e7d32f2854f8325f463e6,
,,,,space,0.5477,,0,320,320,234,1,P, , , , ,space,2000,2,,001,2021-08-19_16h48.45.155,natb3,2021.2.3,Win32,60.34638827,60f321b0a92d5934667ea65c,611e07ecdcc96256ae8d5b80,611e7d32f2854f8325f463e6,
,,,,space,0.7697,,0,321,321,9,1,I, , , , ,space,1500,1.5,,001,2021-08-19_16h48.45.155,natb3,2021.2.3,Win32,60.34638827,60f321b0a92d5934667ea65c,611e07ecdcc96256ae8d5b80,611e7d32f2854f8325f463e6,
,,,,,,,0,322,322,102,1,X, ,6, , ,,1500,1.5,,001,2021-08-19_16h48.45.155,natb3,2021.2.3,Win32,60.34638827,60f321b0a92d5934667ea65c,611e07ecdcc96256ae8d5b80,611e7d32f2854f8325f463e6,
,,,,space,0.5185,,0,323,323,5,1,T, , , , ,space,2000,2,,001,2021-08-19_16h48.45.155,natb3,2021.2.3,Win32,60.34638827,60f321b0a92d5934667ea65c,611e07ecdcc96256ae8d5b80,611e7d32f2854f8325f463e6,
,,,,space,0.6516,,0,324,324,80,1,A, , , , ,space,2000,2,,001,2021-08-19_16h48.45.155,natb3,2021.2.3,Win32,60.34638827,60f321b0a92d5934667ea65c,611e07ecdcc96256ae8d5b80,611e7d32f2854f8325f463e6,
,,,,,,,0,325,325,179,1,X, ,9, ,2,,1500,1.5,,001,2021-08-19_16h48.45.155,natb3,2021.2.3,Win32,60.34638827,60f321b0a92d5934667ea65c,611e07ecdcc96256ae8d5b80,611e7d32f2854f8325f463e6,
,,,,space,0.5151,,0,326,326,174,1,B, , , , ,space,2500,2.5,,001,2021-08-19_16h48.45.155,natb3,2021.2.3,Win32,60.34638827,60f321b0a92d5934667ea65c,611e07ecdcc96256ae8d5b80,611e7d32f2854f8325f463e6,
,,,,space,0.6629,,0,327,327,44,1,I, , , , ,space,2500,2.5,,001,2021-08-19_16h48.45.155,natb3,2021.2.3,Win32,60.34638827,60f321b0a92d5934667ea65c,611e07ecdcc96256ae8d5b80,611e7d32f2854f8325f463e6,
,,,,space,0.5713,,0,328,328,160,1,D, , , , ,space,1500,1.5,,001,2021-08-19_16h48.45.155,natb3,2021.2.3,Win32,60.34638827,60f321b0a92d5934667ea65c,611e07ecdcc96256ae8d5b80,611e7d32f2854f8325f463e6,
,,,,space,0.5817,,0,329,329,289,1,Q, , , , ,space,2000,2,,001,2021-08-19_16h48.45.155,natb3,2021.2.3,Win32,60.34638827,60f321b0a92d5934667ea65c,611e07ecdcc96256ae8d5b80,611e7d32f2854f8325f463e6,
,,,,,,,0,330,330,315,1,X, , , , ,,2500,2.5,,001,2021-08-19_16h48.45.155,natb3,2021.2.3,Win32,60.34638827,60f321b0a92d5934667ea65c,611e07ecdcc96256ae8d5b80,611e7d32f2854f8325f463e6,
,,,,space,0.5158,,0,331,331,146,1,W, , , , ,space,1500,1.5,,001,2021-08-19_16h48.45.155,natb3,2021.2.3,Win32,60.34638827,60f321b0a92d5934667ea65c,611e07ecdcc96256ae8d5b80,611e7d32f2854f8325f463e6,
,,,,space,0.499,,0,332,332,230,1,U, , , , ,space,1500,1.5,,001,2021-08-19_16h48.45.155,natb3,2021.2.3,Win32,60.34638827,60f321b0a92d5934667ea65c,611e07ecdcc96256ae8d5b80,611e7d32f2854f8325f463e6,
,,,,space,0.4043,,0,333,333,307,1,F, , , , ,space,2500,2.5,,001,2021-08-19_16h48.45.155,natb3,2021.2.3,Win32,60.34638827,60f321b0a92d5934667ea65c,611e07ecdcc96256ae8d5b80,611e7d32f2854f8325f463e6,
,,,,space,0.5449,,0,334,334,53,1,G, , , , ,space,2500,2.5,,001,2021-08-19_16h48.45.155,natb3,2021.2.3,Win32,60.34638827,60f321b0a92d5934667ea65c,611e07ecdcc96256ae8d5b80,611e7d32f2854f8325f463e6,
,,,,space,0.5994,,0,335,335,173,1,V, , , , ,space,1500,1.5,,001,2021-08-19_16h48.45.155,natb3,2021.2.3,Win32,60.34638827,60f321b0a92d5934667ea65c,611e07ecdcc96256ae8d5b80,611e7d32f2854f8325f463e6,
