key_resp_2.keys,key_resp_2.rt,key_resp_3.keys,key_resp_3.rt,key_resp.keys,key_resp_4.keys,trials.thisRepN,trials.thisTrialN,trials.thisN,trials.thisIndex,trials.ran,stimulus,distractor1,distractor2,distractor3,distractor4,CorrAns,isi_duration,isi_dur_in_seconds,participant,session,date,expName,psychopyVersion,OS,frameRate,PROLIFIC_PID,STUDY_ID,SESSION_ID,key_resp.rt,key_resp_4.rt
return,34.719,space,30.167,,,0,0,0,67,1,Q, , , , ,space,2000,2,,001,2021-08-19_15h51.00,natb3,2021.2.3,MacIntel,83.33333333,60fd82be5a4ad41f00b77b18,611e07ecdcc96256ae8d5b80,611e6f981dae26d0a5977fd4,,
,,,,space,,0,1,1,104,1,E, , , , ,space,2000,2,,001,2021-08-19_15h51.00,natb3,2021.2.3,MacIntel,83.33333333,60fd82be5a4ad41f00b77b18,611e07ecdcc96256ae8d5b80,611e6f981dae26d0a5977fd4,0.423,
,,,,space,,0,2,2,115,1,R, , , , ,space,1500,1.5,,001,2021-08-19_15h51.00,natb3,2021.2.3,MacIntel,83.33333333,60fd82be5a4ad41f00b77b18,611e07ecdcc96256ae8d5b80,611e6f981dae26d0a5977fd4,0.451,
,,,,space,,0,3,3,45,1,O, , , , ,space,2000,2,,001,2021-08-19_15h51.00,natb3,2021.2.3,MacIntel,83.33333333,60fd82be5a4ad41f00b77b18,611e07ecdcc96256ae8d5b80,611e6f981dae26d0a5977fd4,0.349,
,,,,space,,0,4,4,249,1,C, , , , ,space,2000,2,,001,2021-08-19_15h51.00,natb3,2021.2.3,MacIntel,83.33333333,60fd82be5a4ad41f00b77b18,611e07ecdcc96256ae8d5b80,611e6f981dae26d0a5977fd4,0.37,
,,,,space,,0,5,5,113,1,W, , , , ,space,2500,2.5,,001,2021-08-19_15h51.00,natb3,2021.2.3,MacIntel,83.33333333,60fd82be5a4ad41f00b77b18,611e07ecdcc96256ae8d5b80,611e6f981dae26d0a5977fd4,0.347,
,,,,space,,0,6,6,234,1,P, , , , ,space,2000,2,,001,2021-08-19_15h51.00,natb3,2021.2.3,MacIntel,83.33333333,60fd82be5a4ad41f00b77b18,611e07ecdcc96256ae8d5b80,611e6f981dae26d0a5977fd4,0.319,
,,,,space,,0,7,7,103,1,W, , , , ,space,2000,2,,001,2021-08-19_15h51.00,natb3,2021.2.3,MacIntel,83.33333333,60fd82be5a4ad41f00b77b18,611e07ecdcc96256ae8d5b80,611e6f981dae26d0a5977fd4,0.308,
,,,,space,,0,8,8,275,1,G, , , , ,space,1500,1.5,,001,2021-08-19_15h51.00,natb3,2021.2.3,MacIntel,83.33333333,60fd82be5a4ad41f00b77b18,611e07ecdcc96256ae8d5b80,611e6f981dae26d0a5977fd4,0.38,
,,,,space,,0,9,9,264,1,U, , , , ,space,2000,2,,001,2021-08-19_15h51.00,natb3,2021.2.3,MacIntel,83.33333333,60fd82be5a4ad41f00b77b18,611e07ecdcc96256ae8d5b80,611e6f981dae26d0a5977fd4,0.297,
,,,,space,,0,10,10,296,1,Y, , , , ,space,2500,2.5,,001,2021-08-19_15h51.00,natb3,2021.2.3,MacIntel,83.33333333,60fd82be5a4ad41f00b77b18,611e07ecdcc96256ae8d5b80,611e6f981dae26d0a5977fd4,0.48,
,,,,,,0,11,11,182,1,X, , , , ,,1500,1.5,,001,2021-08-19_15h51.00,natb3,2021.2.3,MacIntel,83.33333333,60fd82be5a4ad41f00b77b18,611e07ecdcc96256ae8d5b80,611e6f981dae26d0a5977fd4,,
,,,,space,,0,12,12,297,1,U, , , , ,space,2000,2,,001,2021-08-19_15h51.00,natb3,2021.2.3,MacIntel,83.33333333,60fd82be5a4ad41f00b77b18,611e07ecdcc96256ae8d5b80,611e6f981dae26d0a5977fd4,0.408,
,,,,,,0,13,13,268,1,X,6, ,3, ,,2500,2.5,,001,2021-08-19_15h51.00,natb3,2021.2.3,MacIntel,83.33333333,60fd82be5a4ad41f00b77b18,611e07ecdcc96256ae8d5b80,611e6f981dae26d0a5977fd4,,
,,,,space,,0,14,14,170,1,Z, , , , ,space,2000,2,,001,2021-08-19_15h51.00,natb3,2021.2.3,MacIntel,83.33333333,60fd82be5a4ad41f00b77b18,611e07ecdcc96256ae8d5b80,611e6f981dae26d0a5977fd4,0.349,
,,,,,,0,15,15,138,1,X,8,5, ,3,,2000,2,,001,2021-08-19_15h51.00,natb3,2021.2.3,MacIntel,83.33333333,60fd82be5a4ad41f00b77b18,611e07ecdcc96256ae8d5b80,611e6f981dae26d0a5977fd4,,
,,,,,,0,16,16,322,1,X, , ,1,6,,2000,2,,001,2021-08-19_15h51.00,natb3,2021.2.3,MacIntel,83.33333333,60fd82be5a4ad41f00b77b18,611e07ecdcc96256ae8d5b80,611e6f981dae26d0a5977fd4,,
,,,,,,0,17,17,7,1,X, , , , ,,1500,1.5,,001,2021-08-19_15h51.00,natb3,2021.2.3,MacIntel,83.33333333,60fd82be5a4ad41f00b77b18,611e07ecdcc96256ae8d5b80,611e6f981dae26d0a5977fd4,,
,,,,space,,0,18,18,309,1,H, , , , ,space,2500,2.5,,001,2021-08-19_15h51.00,natb3,2021.2.3,MacIntel,83.33333333,60fd82be5a4ad41f00b77b18,611e07ecdcc96256ae8d5b80,611e6f981dae26d0a5977fd4,0.466,
,,,,space,,0,19,19,151,1,Y, , , , ,space,2500,2.5,,001,2021-08-19_15h51.00,natb3,2021.2.3,MacIntel,83.33333333,60fd82be5a4ad41f00b77b18,611e07ecdcc96256ae8d5b80,611e6f981dae26d0a5977fd4,0.457,
,,,,space,,0,20,20,250,1,V, , , , ,space,2000,2,,001,2021-08-19_15h51.00,natb3,2021.2.3,MacIntel,83.33333333,60fd82be5a4ad41f00b77b18,611e07ecdcc96256ae8d5b80,611e6f981dae26d0a5977fd4,0.326,
,,,,space,,0,21,21,37,1,E, , , , ,space,2500,2.5,,001,2021-08-19_15h51.00,natb3,2021.2.3,MacIntel,83.33333333,60fd82be5a4ad41f00b77b18,611e07ecdcc96256ae8d5b80,611e6f981dae26d0a5977fd4,0.349,
,,,,space,,0,22,22,253,1,N, , , , ,space,2500,2.5,,001,2021-08-19_15h51.00,natb3,2021.2.3,MacIntel,83.33333333,60fd82be5a4ad41f00b77b18,611e07ecdcc96256ae8d5b80,611e6f981dae26d0a5977fd4,0.334,
,,,,space,,0,23,23,30,1,N, , , , ,space,2500,2.5,,001,2021-08-19_15h51.00,natb3,2021.2.3,MacIntel,83.33333333,60fd82be5a4ad41f00b77b18,611e07ecdcc96256ae8d5b80,611e6f981dae26d0a5977fd4,0.333,
,,,,space,,0,24,24,77,1,O, , , , ,space,2000,2,,001,2021-08-19_15h51.00,natb3,2021.2.3,MacIntel,83.33333333,60fd82be5a4ad41f00b77b18,611e07ecdcc96256ae8d5b80,611e6f981dae26d0a5977fd4,0.389,
,,,,space,,0,25,25,10,1,O, , , , ,space,2000,2,,001,2021-08-19_15h51.00,natb3,2021.2.3,MacIntel,83.33333333,60fd82be5a4ad41f00b77b18,611e07ecdcc96256ae8d5b80,611e6f981dae26d0a5977fd4,0.327,
,,,,,,0,26,26,179,1,X, ,9, ,2,,1500,1.5,,001,2021-08-19_15h51.00,natb3,2021.2.3,MacIntel,83.33333333,60fd82be5a4ad41f00b77b18,611e07ecdcc96256ae8d5b80,611e6f981dae26d0a5977fd4,,
,,,,space,,0,27,27,136,1,Z, , , , ,space,2500,2.5,,001,2021-08-19_15h51.00,natb3,2021.2.3,MacIntel,83.33333333,60fd82be5a4ad41f00b77b18,611e07ecdcc96256ae8d5b80,611e6f981dae26d0a5977fd4,0.39,
,,,,space,,0,28,28,142,1,N, , , , ,space,2500,2.5,,001,2021-08-19_15h51.00,natb3,2021.2.3,MacIntel,83.33333333,60fd82be5a4ad41f00b77b18,611e07ecdcc96256ae8d5b80,611e6f981dae26d0a5977fd4,0.364,
,,,,space,,0,29,29,59,1,Z, , , , ,space,2000,2,,001,2021-08-19_15h51.00,natb3,2021.2.3,MacIntel,83.33333333,60fd82be5a4ad41f00b77b18,611e07ecdcc96256ae8d5b80,611e6f981dae26d0a5977fd4,0.34,
,,,,space,,0,30,30,226,1,R, , , , ,space,2000,2,,001,2021-08-19_15h51.00,natb3,2021.2.3,MacIntel,83.33333333,60fd82be5a4ad41f00b77b18,611e07ecdcc96256ae8d5b80,611e6f981dae26d0a5977fd4,0.324,
,,,,,,0,31,31,207,1,X,9, ,2, ,,2500,2.5,,001,2021-08-19_15h51.00,natb3,2021.2.3,MacIntel,83.33333333,60fd82be5a4ad41f00b77b18,611e07ecdcc96256ae8d5b80,611e6f981dae26d0a5977fd4,,
,,,,space,,0,32,32,17,1,F, , , , ,space,2500,2.5,,001,2021-08-19_15h51.00,natb3,2021.2.3,MacIntel,83.33333333,60fd82be5a4ad41f00b77b18,611e07ecdcc96256ae8d5b80,611e6f981dae26d0a5977fd4,0.368,
,,,,space,,0,33,33,257,1,W, , , , ,space,2000,2,,001,2021-08-19_15h51.00,natb3,2021.2.3,MacIntel,83.33333333,60fd82be5a4ad41f00b77b18,611e07ecdcc96256ae8d5b80,611e6f981dae26d0a5977fd4,0.29,
,,,,space,,0,34,34,36,1,W, , , , ,space,2000,2,,001,2021-08-19_15h51.00,natb3,2021.2.3,MacIntel,83.33333333,60fd82be5a4ad41f00b77b18,611e07ecdcc96256ae8d5b80,611e6f981dae26d0a5977fd4,0.3,
,,,,space,,0,35,35,202,1,L, , , , ,space,2500,2.5,,001,2021-08-19_15h51.00,natb3,2021.2.3,MacIntel,83.33333333,60fd82be5a4ad41f00b77b18,611e07ecdcc96256ae8d5b80,611e6f981dae26d0a5977fd4,0.349,
,,,,space,,0,36,36,71,1,R, , , , ,space,2500,2.5,,001,2021-08-19_15h51.00,natb3,2021.2.3,MacIntel,83.33333333,60fd82be5a4ad41f00b77b18,611e07ecdcc96256ae8d5b80,611e6f981dae26d0a5977fd4,0.303,
,,,,,,0,37,37,35,1,X, , , , ,,2500,2.5,,001,2021-08-19_15h51.00,natb3,2021.2.3,MacIntel,83.33333333,60fd82be5a4ad41f00b77b18,611e07ecdcc96256ae8d5b80,611e6f981dae26d0a5977fd4,,
,,,,space,,0,38,38,307,1,F, , , , ,space,2500,2.5,,001,2021-08-19_15h51.00,natb3,2021.2.3,MacIntel,83.33333333,60fd82be5a4ad41f00b77b18,611e07ecdcc96256ae8d5b80,611e6f981dae26d0a5977fd4,0.428,
,,,,space,,0,39,39,289,1,Q, , , , ,space,2000,2,,001,2021-08-19_15h51.00,natb3,2021.2.3,MacIntel,83.33333333,60fd82be5a4ad41f00b77b18,611e07ecdcc96256ae8d5b80,611e6f981dae26d0a5977fd4,0.357,
,,,,space,,0,40,40,290,1,W, , , , ,space,1500,1.5,,001,2021-08-19_15h51.00,natb3,2021.2.3,MacIntel,83.33333333,60fd82be5a4ad41f00b77b18,611e07ecdcc96256ae8d5b80,611e6f981dae26d0a5977fd4,0.342,
,,,,space,,0,41,41,232,1,O, , , , ,space,2500,2.5,,001,2021-08-19_15h51.00,natb3,2021.2.3,MacIntel,83.33333333,60fd82be5a4ad41f00b77b18,611e07ecdcc96256ae8d5b80,611e6f981dae26d0a5977fd4,0.295,
,,,,,,0,42,42,33,1,X, , , , ,,1500,1.5,,001,2021-08-19_15h51.00,natb3,2021.2.3,MacIntel,83.33333333,60fd82be5a4ad41f00b77b18,611e07ecdcc96256ae8d5b80,611e6f981dae26d0a5977fd4,,
,,,,space,,0,43,43,110,1,I, , , , ,space,1500,1.5,,001,2021-08-19_15h51.00,natb3,2021.2.3,MacIntel,83.33333333,60fd82be5a4ad41f00b77b18,611e07ecdcc96256ae8d5b80,611e6f981dae26d0a5977fd4,0.383,
,,,,space,,0,44,44,331,1,Y, , , , ,space,2500,2.5,,001,2021-08-19_15h51.00,natb3,2021.2.3,MacIntel,83.33333333,60fd82be5a4ad41f00b77b18,611e07ecdcc96256ae8d5b80,611e6f981dae26d0a5977fd4,0.279,
,,,,space,,0,45,45,157,1,A, , , , ,space,2500,2.5,,001,2021-08-19_15h51.00,natb3,2021.2.3,MacIntel,83.33333333,60fd82be5a4ad41f00b77b18,611e07ecdcc96256ae8d5b80,611e6f981dae26d0a5977fd4,0.317,
,,,,space,,0,46,46,177,1,M, , , , ,space,2500,2.5,,001,2021-08-19_15h51.00,natb3,2021.2.3,MacIntel,83.33333333,60fd82be5a4ad41f00b77b18,611e07ecdcc96256ae8d5b80,611e6f981dae26d0a5977fd4,0.289,
,,,,space,,0,47,47,62,1,V, , , , ,space,1500,1.5,,001,2021-08-19_15h51.00,natb3,2021.2.3,MacIntel,83.33333333,60fd82be5a4ad41f00b77b18,611e07ecdcc96256ae8d5b80,611e6f981dae26d0a5977fd4,0.433,
,,,,space,,0,48,48,144,1,Q, , , , ,space,2500,2.5,,001,2021-08-19_15h51.00,natb3,2021.2.3,MacIntel,83.33333333,60fd82be5a4ad41f00b77b18,611e07ecdcc96256ae8d5b80,611e6f981dae26d0a5977fd4,0.286,
,,,,space,,0,49,49,198,1,H, , , , ,space,2500,2.5,,001,2021-08-19_15h51.00,natb3,2021.2.3,MacIntel,83.33333333,60fd82be5a4ad41f00b77b18,611e07ecdcc96256ae8d5b80,611e6f981dae26d0a5977fd4,0.297,
,,,,space,,0,50,50,280,1,L, , , , ,space,1500,1.5,,001,2021-08-19_15h51.00,natb3,2021.2.3,MacIntel,83.33333333,60fd82be5a4ad41f00b77b18,611e07ecdcc96256ae8d5b80,611e6f981dae26d0a5977fd4,0.46,
,,,,space,,0,51,51,13,1,A, , , , ,space,2000,2,,001,2021-08-19_15h51.00,natb3,2021.2.3,MacIntel,83.33333333,60fd82be5a4ad41f00b77b18,611e07ecdcc96256ae8d5b80,611e6f981dae26d0a5977fd4,0.289,
,,,,space,,0,52,52,75,1,U, , , , ,space,1500,1.5,,001,2021-08-19_15h51.00,natb3,2021.2.3,MacIntel,83.33333333,60fd82be5a4ad41f00b77b18,611e07ecdcc96256ae8d5b80,611e6f981dae26d0a5977fd4,0.333,
,,,,,,0,53,53,295,1,X,8,7,5, ,,2500,2.5,,001,2021-08-19_15h51.00,natb3,2021.2.3,MacIntel,83.33333333,60fd82be5a4ad41f00b77b18,611e07ecdcc96256ae8d5b80,611e6f981dae26d0a5977fd4,,
,,,,space,,0,54,54,95,1,V, , , , ,space,1500,1.5,,001,2021-08-19_15h51.00,natb3,2021.2.3,MacIntel,83.33333333,60fd82be5a4ad41f00b77b18,611e07ecdcc96256ae8d5b80,611e6f981dae26d0a5977fd4,0.384,
,,,,space,,0,55,55,221,1,I, , , , ,space,2500,2.5,,001,2021-08-19_15h51.00,natb3,2021.2.3,MacIntel,83.33333333,60fd82be5a4ad41f00b77b18,611e07ecdcc96256ae8d5b80,611e6f981dae26d0a5977fd4,0.356,
,,,,space,,0,56,56,205,1,C, , , , ,space,2000,2,,001,2021-08-19_15h51.00,natb3,2021.2.3,MacIntel,83.33333333,60fd82be5a4ad41f00b77b18,611e07ecdcc96256ae8d5b80,611e6f981dae26d0a5977fd4,0.341,
,,,,space,,0,57,57,269,1,A, , , , ,space,2500,2.5,,001,2021-08-19_15h51.00,natb3,2021.2.3,MacIntel,83.33333333,60fd82be5a4ad41f00b77b18,611e07ecdcc96256ae8d5b80,611e6f981dae26d0a5977fd4,0.323,
,,,,space,,0,58,58,78,1,X, , , , ,,2000,2,,001,2021-08-19_15h51.00,natb3,2021.2.3,MacIntel,83.33333333,60fd82be5a4ad41f00b77b18,611e07ecdcc96256ae8d5b80,611e6f981dae26d0a5977fd4,0.339,
,,,,,,0,59,59,329,1,X,3,4, ,2,,2500,2.5,,001,2021-08-19_15h51.00,natb3,2021.2.3,MacIntel,83.33333333,60fd82be5a4ad41f00b77b18,611e07ecdcc96256ae8d5b80,611e6f981dae26d0a5977fd4,,
,,,,space,,0,60,60,274,1,F, , , , ,space,2000,2,,001,2021-08-19_15h51.00,natb3,2021.2.3,MacIntel,83.33333333,60fd82be5a4ad41f00b77b18,611e07ecdcc96256ae8d5b80,611e6f981dae26d0a5977fd4,0.461,
,,,,space,,0,61,61,2,1,E, , , , ,space,2500,2.5,,001,2021-08-19_15h51.00,natb3,2021.2.3,MacIntel,83.33333333,60fd82be5a4ad41f00b77b18,611e07ecdcc96256ae8d5b80,611e6f981dae26d0a5977fd4,0.304,
,,,,space,,0,62,62,22,1,K, , , , ,space,2000,2,,001,2021-08-19_15h51.00,natb3,2021.2.3,MacIntel,83.33333333,60fd82be5a4ad41f00b77b18,611e07ecdcc96256ae8d5b80,611e6f981dae26d0a5977fd4,0.3,
,,,,space,,0,63,63,24,1,L, , , , ,space,2500,2.5,,001,2021-08-19_15h51.00,natb3,2021.2.3,MacIntel,83.33333333,60fd82be5a4ad41f00b77b18,611e07ecdcc96256ae8d5b80,611e6f981dae26d0a5977fd4,0.318,
,,,,space,,0,64,64,225,1,E, , , , ,space,2000,2,,001,2021-08-19_15h51.00,natb3,2021.2.3,MacIntel,83.33333333,60fd82be5a4ad41f00b77b18,611e07ecdcc96256ae8d5b80,611e6f981dae26d0a5977fd4,0.318,
,,,,space,,0,65,65,278,1,J, , , , ,space,2000,2,,001,2021-08-19_15h51.00,natb3,2021.2.3,MacIntel,83.33333333,60fd82be5a4ad41f00b77b18,611e07ecdcc96256ae8d5b80,611e6f981dae26d0a5977fd4,0.366,
,,,,,,0,66,66,277,1,X,8,5, ,2,,2000,2,,001,2021-08-19_15h51.00,natb3,2021.2.3,MacIntel,83.33333333,60fd82be5a4ad41f00b77b18,611e07ecdcc96256ae8d5b80,611e6f981dae26d0a5977fd4,,
,,,,space,,0,67,67,86,1,G, , , , ,space,2000,2,,001,2021-08-19_15h51.00,natb3,2021.2.3,MacIntel,83.33333333,60fd82be5a4ad41f00b77b18,611e07ecdcc96256ae8d5b80,611e6f981dae26d0a5977fd4,0.35,
,,,,space,,0,68,68,105,1,R, , , , ,space,2500,2.5,,001,2021-08-19_15h51.00,natb3,2021.2.3,MacIntel,83.33333333,60fd82be5a4ad41f00b77b18,611e07ecdcc96256ae8d5b80,611e6f981dae26d0a5977fd4,0.315,
,,,,,,0,69,69,263,1,X,4, ,6, ,,1500,1.5,,001,2021-08-19_15h51.00,natb3,2021.2.3,MacIntel,83.33333333,60fd82be5a4ad41f00b77b18,611e07ecdcc96256ae8d5b80,611e6f981dae26d0a5977fd4,,
,,,,space,,0,70,70,188,1,I, , , , ,space,2500,2.5,,001,2021-08-19_15h51.00,natb3,2021.2.3,MacIntel,83.33333333,60fd82be5a4ad41f00b77b18,611e07ecdcc96256ae8d5b80,611e6f981dae26d0a5977fd4,0.374,
,,,,,,0,71,71,116,1,X, , , , ,,2000,2,,001,2021-08-19_15h51.00,natb3,2021.2.3,MacIntel,83.33333333,60fd82be5a4ad41f00b77b18,611e07ecdcc96256ae8d5b80,611e6f981dae26d0a5977fd4,,
,,,,space,,0,72,72,143,1,M, , , , ,space,2500,2.5,,001,2021-08-19_15h51.00,natb3,2021.2.3,MacIntel,83.33333333,60fd82be5a4ad41f00b77b18,611e07ecdcc96256ae8d5b80,611e6f981dae26d0a5977fd4,0.427,
,,,,space,,0,73,73,258,1,E, , , , ,space,1500,1.5,,001,2021-08-19_15h51.00,natb3,2021.2.3,MacIntel,83.33333333,60fd82be5a4ad41f00b77b18,611e07ecdcc96256ae8d5b80,611e6f981dae26d0a5977fd4,0.414,
,,,,,,0,74,74,89,1,X,3, , , ,,2000,2,,001,2021-08-19_15h51.00,natb3,2021.2.3,MacIntel,83.33333333,60fd82be5a4ad41f00b77b18,611e07ecdcc96256ae8d5b80,611e6f981dae26d0a5977fd4,,
,,,,,,0,75,75,12,1,X, , , , ,,1500,1.5,,001,2021-08-19_15h51.00,natb3,2021.2.3,MacIntel,83.33333333,60fd82be5a4ad41f00b77b18,611e07ecdcc96256ae8d5b80,611e6f981dae26d0a5977fd4,,
,,,,,,0,76,76,93,1,X,5, ,7, ,,2500,2.5,,001,2021-08-19_15h51.00,natb3,2021.2.3,MacIntel,83.33333333,60fd82be5a4ad41f00b77b18,611e07ecdcc96256ae8d5b80,611e6f981dae26d0a5977fd4,,
,,,,,,0,77,77,191,1,X,1, ,3,4,,2500,2.5,,001,2021-08-19_15h51.00,natb3,2021.2.3,MacIntel,83.33333333,60fd82be5a4ad41f00b77b18,611e07ecdcc96256ae8d5b80,611e6f981dae26d0a5977fd4,,
,,,,,,0,78,78,325,1,X, , , , ,,2500,2.5,,001,2021-08-19_15h51.00,natb3,2021.2.3,MacIntel,83.33333333,60fd82be5a4ad41f00b77b18,611e07ecdcc96256ae8d5b80,611e6f981dae26d0a5977fd4,,
,,,,space,,0,79,79,284,1,V, , , , ,space,2500,2.5,,001,2021-08-19_15h51.00,natb3,2021.2.3,MacIntel,83.33333333,60fd82be5a4ad41f00b77b18,611e07ecdcc96256ae8d5b80,611e6f981dae26d0a5977fd4,0.356,
,,,,space,,0,80,80,120,1,U, , , , ,space,1500,1.5,,001,2021-08-19_15h51.00,natb3,2021.2.3,MacIntel,83.33333333,60fd82be5a4ad41f00b77b18,611e07ecdcc96256ae8d5b80,611e6f981dae26d0a5977fd4,0.457,
,,,,space,,0,81,81,183,1,R, , , , ,space,1500,1.5,,001,2021-08-19_15h51.00,natb3,2021.2.3,MacIntel,83.33333333,60fd82be5a4ad41f00b77b18,611e07ecdcc96256ae8d5b80,611e6f981dae26d0a5977fd4,0.351,
,,,,space,,0,82,82,316,1,Z, , , , ,space,1500,1.5,,001,2021-08-19_15h51.00,natb3,2021.2.3,MacIntel,83.33333333,60fd82be5a4ad41f00b77b18,611e07ecdcc96256ae8d5b80,611e6f981dae26d0a5977fd4,0.573,
,,,,space,,0,83,83,189,1,O, , , , ,space,1500,1.5,,001,2021-08-19_15h51.00,natb3,2021.2.3,MacIntel,83.33333333,60fd82be5a4ad41f00b77b18,611e07ecdcc96256ae8d5b80,611e6f981dae26d0a5977fd4,0.422,
,,,,space,,0,84,84,56,1,J, , , , ,space,1500,1.5,,001,2021-08-19_15h51.00,natb3,2021.2.3,MacIntel,83.33333333,60fd82be5a4ad41f00b77b18,611e07ecdcc96256ae8d5b80,611e6f981dae26d0a5977fd4,0.38,
,,,,space,,0,85,85,241,1,G, , , , ,space,2500,2.5,,001,2021-08-19_15h51.00,natb3,2021.2.3,MacIntel,83.33333333,60fd82be5a4ad41f00b77b18,611e07ecdcc96256ae8d5b80,611e6f981dae26d0a5977fd4,0.359,
,,,,space,,0,86,86,172,1,C, , , , ,space,1500,1.5,,001,2021-08-19_15h51.00,natb3,2021.2.3,MacIntel,83.33333333,60fd82be5a4ad41f00b77b18,611e07ecdcc96256ae8d5b80,611e6f981dae26d0a5977fd4,0.308,
,,,,space,,0,87,87,16,1,D, , , , ,space,1500,1.5,,001,2021-08-19_15h51.00,natb3,2021.2.3,MacIntel,83.33333333,60fd82be5a4ad41f00b77b18,611e07ecdcc96256ae8d5b80,611e6f981dae26d0a5977fd4,0.305,
,,,,space,,0,88,88,3,1,R, , , , ,space,2000,2,,001,2021-08-19_15h51.00,natb3,2021.2.3,MacIntel,83.33333333,60fd82be5a4ad41f00b77b18,611e07ecdcc96256ae8d5b80,611e6f981dae26d0a5977fd4,0.314,
,,,,space,,0,89,89,335,1,P,,,,,space,1500,1.5,,001,2021-08-19_15h51.00,natb3,2021.2.3,MacIntel,83.33333333,60fd82be5a4ad41f00b77b18,611e07ecdcc96256ae8d5b80,611e6f981dae26d0a5977fd4,0.412,
,,,,space,,0,90,90,272,1,D, , , , ,space,2000,2,,001,2021-08-19_15h51.00,natb3,2021.2.3,MacIntel,83.33333333,60fd82be5a4ad41f00b77b18,611e07ecdcc96256ae8d5b80,611e6f981dae26d0a5977fd4,0.368,
,,,,space,,0,91,91,61,1,C, , , , ,space,2000,2,,001,2021-08-19_15h51.00,natb3,2021.2.3,MacIntel,83.33333333,60fd82be5a4ad41f00b77b18,611e07ecdcc96256ae8d5b80,611e6f981dae26d0a5977fd4,0.381,
,,,,space,,0,92,92,273,1,X, , , , ,,2000,2,,001,2021-08-19_15h51.00,natb3,2021.2.3,MacIntel,83.33333333,60fd82be5a4ad41f00b77b18,611e07ecdcc96256ae8d5b80,611e6f981dae26d0a5977fd4,0.321,
,,,,space,,0,93,93,334,1,O, , , , ,space,1500,1.5,,001,2021-08-19_15h51.00,natb3,2021.2.3,MacIntel,83.33333333,60fd82be5a4ad41f00b77b18,611e07ecdcc96256ae8d5b80,611e6f981dae26d0a5977fd4,0.353,
,,,,,,0,94,94,229,1,X,8, ,2,6,,2500,2.5,,001,2021-08-19_15h51.00,natb3,2021.2.3,MacIntel,83.33333333,60fd82be5a4ad41f00b77b18,611e07ecdcc96256ae8d5b80,611e6f981dae26d0a5977fd4,,
,,,,space,,0,95,95,165,1,J, , , , ,space,2500,2.5,,001,2021-08-19_15h51.00,natb3,2021.2.3,MacIntel,83.33333333,60fd82be5a4ad41f00b77b18,611e07ecdcc96256ae8d5b80,611e6f981dae26d0a5977fd4,0.344,
,,,,space,,0,96,96,237,1,S, , , , ,space,1500,1.5,,001,2021-08-19_15h51.00,natb3,2021.2.3,MacIntel,83.33333333,60fd82be5a4ad41f00b77b18,611e07ecdcc96256ae8d5b80,611e6f981dae26d0a5977fd4,0.388,
,,,,space,,0,97,97,121,1,I, , , , ,space,2000,2,,001,2021-08-19_15h51.00,natb3,2021.2.3,MacIntel,83.33333333,60fd82be5a4ad41f00b77b18,611e07ecdcc96256ae8d5b80,611e6f981dae26d0a5977fd4,0.389,
,,,,space,,0,98,98,279,1,K, , , , ,space,2500,2.5,,001,2021-08-19_15h51.00,natb3,2021.2.3,MacIntel,83.33333333,60fd82be5a4ad41f00b77b18,611e07ecdcc96256ae8d5b80,611e6f981dae26d0a5977fd4,0.373,
,,,,space,,0,99,99,247,1,Z, , , , ,space,1500,1.5,,001,2021-08-19_15h51.00,natb3,2021.2.3,MacIntel,83.33333333,60fd82be5a4ad41f00b77b18,611e07ecdcc96256ae8d5b80,611e6f981dae26d0a5977fd4,0.367,
,,,,space,,0,100,100,181,1,E, , , , ,space,1500,1.5,,001,2021-08-19_15h51.00,natb3,2021.2.3,MacIntel,83.33333333,60fd82be5a4ad41f00b77b18,611e07ecdcc96256ae8d5b80,611e6f981dae26d0a5977fd4,0.343,
,,,,space,,0,101,101,292,1,E, , , , ,space,2000,2,,001,2021-08-19_15h51.00,natb3,2021.2.3,MacIntel,83.33333333,60fd82be5a4ad41f00b77b18,611e07ecdcc96256ae8d5b80,611e6f981dae26d0a5977fd4,0.295,
,,,,space,,0,102,102,156,1,P, , , , ,space,1500,1.5,,001,2021-08-19_15h51.00,natb3,2021.2.3,MacIntel,83.33333333,60fd82be5a4ad41f00b77b18,611e07ecdcc96256ae8d5b80,611e6f981dae26d0a5977fd4,0.344,
,,,,,,0,103,103,74,1,X, ,4,3,2,,1500,1.5,,001,2021-08-19_15h51.00,natb3,2021.2.3,MacIntel,83.33333333,60fd82be5a4ad41f00b77b18,611e07ecdcc96256ae8d5b80,611e6f981dae26d0a5977fd4,,
,,,,space,,0,104,104,146,1,W, , , , ,space,1500,1.5,,001,2021-08-19_15h51.00,natb3,2021.2.3,MacIntel,83.33333333,60fd82be5a4ad41f00b77b18,611e07ecdcc96256ae8d5b80,611e6f981dae26d0a5977fd4,0.366,
,,,,,,0,105,105,141,1,X,1, ,4,6,,1500,1.5,,001,2021-08-19_15h51.00,natb3,2021.2.3,MacIntel,83.33333333,60fd82be5a4ad41f00b77b18,611e07ecdcc96256ae8d5b80,611e6f981dae26d0a5977fd4,,
,,,,space,,0,106,106,5,1,T, , , , ,space,2000,2,,001,2021-08-19_15h51.00,natb3,2021.2.3,MacIntel,83.33333333,60fd82be5a4ad41f00b77b18,611e07ecdcc96256ae8d5b80,611e6f981dae26d0a5977fd4,0.391,
,,,,space,,0,107,107,301,1,P, , , , ,space,1500,1.5,,001,2021-08-19_15h51.00,natb3,2021.2.3,MacIntel,83.33333333,60fd82be5a4ad41f00b77b18,611e07ecdcc96256ae8d5b80,611e6f981dae26d0a5977fd4,0.324,
,,,,space,,0,108,108,29,1,B, , , , ,space,1500,1.5,,001,2021-08-19_15h51.00,natb3,2021.2.3,MacIntel,83.33333333,60fd82be5a4ad41f00b77b18,611e07ecdcc96256ae8d5b80,611e6f981dae26d0a5977fd4,0.298,
,,,,space,,0,109,109,310,1,J, , , , ,space,2500,2.5,,001,2021-08-19_15h51.00,natb3,2021.2.3,MacIntel,83.33333333,60fd82be5a4ad41f00b77b18,611e07ecdcc96256ae8d5b80,611e6f981dae26d0a5977fd4,0.325,
,,,,,,0,110,110,175,1,X,7, ,4,2,,1500,1.5,,001,2021-08-19_15h51.00,natb3,2021.2.3,MacIntel,83.33333333,60fd82be5a4ad41f00b77b18,611e07ecdcc96256ae8d5b80,611e6f981dae26d0a5977fd4,,
,,,,space,,0,111,111,163,1,G, , , , ,space,2500,2.5,,001,2021-08-19_15h51.00,natb3,2021.2.3,MacIntel,83.33333333,60fd82be5a4ad41f00b77b18,611e07ecdcc96256ae8d5b80,611e6f981dae26d0a5977fd4,0.354,
,,,,,,0,112,112,60,1,X,7,3,5, ,,1500,1.5,,001,2021-08-19_15h51.00,natb3,2021.2.3,MacIntel,83.33333333,60fd82be5a4ad41f00b77b18,611e07ecdcc96256ae8d5b80,611e6f981dae26d0a5977fd4,,
,,,,space,,0,113,113,235,1,A, , , , ,space,1500,1.5,,001,2021-08-19_15h51.00,natb3,2021.2.3,MacIntel,83.33333333,60fd82be5a4ad41f00b77b18,611e07ecdcc96256ae8d5b80,611e6f981dae26d0a5977fd4,0.337,
,,,,space,,0,114,114,19,1,G, , , , ,space,1500,1.5,,001,2021-08-19_15h51.00,natb3,2021.2.3,MacIntel,83.33333333,60fd82be5a4ad41f00b77b18,611e07ecdcc96256ae8d5b80,611e6f981dae26d0a5977fd4,0.339,
,,,,space,,0,115,115,214,1,W, , , , ,space,2000,2,,001,2021-08-19_15h51.00,natb3,2021.2.3,MacIntel,83.33333333,60fd82be5a4ad41f00b77b18,611e07ecdcc96256ae8d5b80,611e6f981dae26d0a5977fd4,0.322,
,,,,space,,0,116,116,132,1,H, , , , ,space,2500,2.5,,001,2021-08-19_15h51.00,natb3,2021.2.3,MacIntel,83.33333333,60fd82be5a4ad41f00b77b18,611e07ecdcc96256ae8d5b80,611e6f981dae26d0a5977fd4,0.313,
,,,,space,,0,117,117,111,1,O, , , , ,space,2000,2,,001,2021-08-19_15h51.00,natb3,2021.2.3,MacIntel,83.33333333,60fd82be5a4ad41f00b77b18,611e07ecdcc96256ae8d5b80,611e6f981dae26d0a5977fd4,0.355,
,,,,,,0,118,118,171,1,X, , , , ,,1500,1.5,,001,2021-08-19_15h51.00,natb3,2021.2.3,MacIntel,83.33333333,60fd82be5a4ad41f00b77b18,611e07ecdcc96256ae8d5b80,611e6f981dae26d0a5977fd4,,
,,,,space,,0,119,119,40,1,T, , , , ,space,1500,1.5,,001,2021-08-19_15h51.00,natb3,2021.2.3,MacIntel,83.33333333,60fd82be5a4ad41f00b77b18,611e07ecdcc96256ae8d5b80,611e6f981dae26d0a5977fd4,0.372,
,,,,space,,0,120,120,184,1,T, , , , ,space,2000,2,,001,2021-08-19_15h51.00,natb3,2021.2.3,MacIntel,83.33333333,60fd82be5a4ad41f00b77b18,611e07ecdcc96256ae8d5b80,611e6f981dae26d0a5977fd4,0.402,
,,,,space,,0,121,121,21,1,J, , , , ,space,1500,1.5,,001,2021-08-19_15h51.00,natb3,2021.2.3,MacIntel,83.33333333,60fd82be5a4ad41f00b77b18,611e07ecdcc96256ae8d5b80,611e6f981dae26d0a5977fd4,0.353,
,,,,space,,0,122,122,101,1,Q, , , , ,space,2500,2.5,,001,2021-08-19_15h51.00,natb3,2021.2.3,MacIntel,83.33333333,60fd82be5a4ad41f00b77b18,611e07ecdcc96256ae8d5b80,611e6f981dae26d0a5977fd4,0.323,
,,,,space,,0,123,123,9,1,I, , , , ,space,1500,1.5,,001,2021-08-19_15h51.00,natb3,2021.2.3,MacIntel,83.33333333,60fd82be5a4ad41f00b77b18,611e07ecdcc96256ae8d5b80,611e6f981dae26d0a5977fd4,0.382,
,,,,space,,0,124,124,85,1,F, , , , ,space,2500,2.5,,001,2021-08-19_15h51.00,natb3,2021.2.3,MacIntel,83.33333333,60fd82be5a4ad41f00b77b18,611e07ecdcc96256ae8d5b80,611e6f981dae26d0a5977fd4,0.29,
,,,,space,,0,125,125,1,1,W, , , , ,space,2000,2,,001,2021-08-19_15h51.00,natb3,2021.2.3,MacIntel,83.33333333,60fd82be5a4ad41f00b77b18,611e07ecdcc96256ae8d5b80,611e6f981dae26d0a5977fd4,0.273,
,,,,space,,0,126,126,314,1,L, , , , ,space,1500,1.5,,001,2021-08-19_15h51.00,natb3,2021.2.3,MacIntel,83.33333333,60fd82be5a4ad41f00b77b18,611e07ecdcc96256ae8d5b80,611e6f981dae26d0a5977fd4,0.324,
,,,,space,,0,127,127,127,1,S, , , , ,space,2500,2.5,,001,2021-08-19_15h51.00,natb3,2021.2.3,MacIntel,83.33333333,60fd82be5a4ad41f00b77b18,611e07ecdcc96256ae8d5b80,611e6f981dae26d0a5977fd4,0.33,
,,,,space,,0,128,128,265,1,I, , , , ,space,2000,2,,001,2021-08-19_15h51.00,natb3,2021.2.3,MacIntel,83.33333333,60fd82be5a4ad41f00b77b18,611e07ecdcc96256ae8d5b80,611e6f981dae26d0a5977fd4,0.33,
,,,,space,,0,129,129,321,1,N, , , , ,space,2000,2,,001,2021-08-19_15h51.00,natb3,2021.2.3,MacIntel,83.33333333,60fd82be5a4ad41f00b77b18,611e07ecdcc96256ae8d5b80,611e6f981dae26d0a5977fd4,0.324,
,,,,,,0,130,130,248,1,X, ,1,5, ,,1500,1.5,,001,2021-08-19_15h51.00,natb3,2021.2.3,MacIntel,83.33333333,60fd82be5a4ad41f00b77b18,611e07ecdcc96256ae8d5b80,611e6f981dae26d0a5977fd4,,
,,,,space,,0,131,131,155,1,O, , , , ,space,1500,1.5,,001,2021-08-19_15h51.00,natb3,2021.2.3,MacIntel,83.33333333,60fd82be5a4ad41f00b77b18,611e07ecdcc96256ae8d5b80,611e6f981dae26d0a5977fd4,0.342,
,,,,space,,0,132,132,276,1,H, , , , ,space,2000,2,,001,2021-08-19_15h51.00,natb3,2021.2.3,MacIntel,83.33333333,60fd82be5a4ad41f00b77b18,611e07ecdcc96256ae8d5b80,611e6f981dae26d0a5977fd4,0.338,
,,,,space,,0,133,133,193,1,S, , , , ,space,2500,2.5,,001,2021-08-19_15h51.00,natb3,2021.2.3,MacIntel,83.33333333,60fd82be5a4ad41f00b77b18,611e07ecdcc96256ae8d5b80,611e6f981dae26d0a5977fd4,0.339,
,,,,space,,0,134,134,137,1,C, , , , ,space,2500,2.5,,001,2021-08-19_15h51.00,natb3,2021.2.3,MacIntel,83.33333333,60fd82be5a4ad41f00b77b18,611e07ecdcc96256ae8d5b80,611e6f981dae26d0a5977fd4,0.318,
,,,,space,,0,135,135,228,1,Y, , , , ,space,2000,2,,001,2021-08-19_15h51.00,natb3,2021.2.3,MacIntel,83.33333333,60fd82be5a4ad41f00b77b18,611e07ecdcc96256ae8d5b80,611e6f981dae26d0a5977fd4,0.341,
,,,,space,,0,136,136,293,1,R, , , , ,space,2500,2.5,,001,2021-08-19_15h51.00,natb3,2021.2.3,MacIntel,83.33333333,60fd82be5a4ad41f00b77b18,611e07ecdcc96256ae8d5b80,611e6f981dae26d0a5977fd4,0.29,
,,,,space,,0,137,137,130,1,F, , , , ,space,2000,2,,001,2021-08-19_15h51.00,natb3,2021.2.3,MacIntel,83.33333333,60fd82be5a4ad41f00b77b18,611e07ecdcc96256ae8d5b80,611e6f981dae26d0a5977fd4,0.318,
,,,,,,0,138,138,302,1,X, , , , ,,2000,2,,001,2021-08-19_15h51.00,natb3,2021.2.3,MacIntel,83.33333333,60fd82be5a4ad41f00b77b18,611e07ecdcc96256ae8d5b80,611e6f981dae26d0a5977fd4,,
,,,,space,,0,139,139,262,1,Y, , , , ,space,2500,2.5,,001,2021-08-19_15h51.00,natb3,2021.2.3,MacIntel,83.33333333,60fd82be5a4ad41f00b77b18,611e07ecdcc96256ae8d5b80,611e6f981dae26d0a5977fd4,0.349,
,,,,space,,0,140,140,106,1,T, , , , ,space,1500,1.5,,001,2021-08-19_15h51.00,natb3,2021.2.3,MacIntel,83.33333333,60fd82be5a4ad41f00b77b18,611e07ecdcc96256ae8d5b80,611e6f981dae26d0a5977fd4,0.438,
,,,,space,,0,141,141,90,1,K, , , , ,space,2000,2,,001,2021-08-19_15h51.00,natb3,2021.2.3,MacIntel,83.33333333,60fd82be5a4ad41f00b77b18,611e07ecdcc96256ae8d5b80,611e6f981dae26d0a5977fd4,0.322,
,,,,,,0,142,142,313,1,X, , , , ,,2500,2.5,,001,2021-08-19_15h51.00,natb3,2021.2.3,MacIntel,83.33333333,60fd82be5a4ad41f00b77b18,611e07ecdcc96256ae8d5b80,611e6f981dae26d0a5977fd4,,
,,,,,,0,143,143,233,1,X, ,2, ,5,,1500,1.5,,001,2021-08-19_15h51.00,natb3,2021.2.3,MacIntel,83.33333333,60fd82be5a4ad41f00b77b18,611e07ecdcc96256ae8d5b80,611e6f981dae26d0a5977fd4,,
,,,,space,,0,144,144,80,1,A, , , , ,space,2000,2,,001,2021-08-19_15h51.00,natb3,2021.2.3,MacIntel,83.33333333,60fd82be5a4ad41f00b77b18,611e07ecdcc96256ae8d5b80,611e6f981dae26d0a5977fd4,0.343,
,,,,space,,0,145,145,271,1,X, , , , ,,2500,2.5,,001,2021-08-19_15h51.00,natb3,2021.2.3,MacIntel,83.33333333,60fd82be5a4ad41f00b77b18,611e07ecdcc96256ae8d5b80,611e6f981dae26d0a5977fd4,0.34,
,,,,,,0,146,146,153,1,X,4,7, ,6,,2000,2,,001,2021-08-19_15h51.00,natb3,2021.2.3,MacIntel,83.33333333,60fd82be5a4ad41f00b77b18,611e07ecdcc96256ae8d5b80,611e6f981dae26d0a5977fd4,,
,,,,space,,0,147,147,240,1,F, , , , ,space,2500,2.5,,001,2021-08-19_15h51.00,natb3,2021.2.3,MacIntel,83.33333333,60fd82be5a4ad41f00b77b18,611e07ecdcc96256ae8d5b80,611e6f981dae26d0a5977fd4,0.392,
,,,,space,,0,148,148,124,1,P, , , , ,space,2000,2,,001,2021-08-19_15h51.00,natb3,2021.2.3,MacIntel,83.33333333,60fd82be5a4ad41f00b77b18,611e07ecdcc96256ae8d5b80,611e6f981dae26d0a5977fd4,0.335,
,,,,space,,0,149,149,108,1,Y, , , , ,space,2500,2.5,,001,2021-08-19_15h51.00,natb3,2021.2.3,MacIntel,83.33333333,60fd82be5a4ad41f00b77b18,611e07ecdcc96256ae8d5b80,611e6f981dae26d0a5977fd4,0.296,
,,,,space,,0,150,150,319,1,V, , , , ,space,2000,2,,001,2021-08-19_15h51.00,natb3,2021.2.3,MacIntel,83.33333333,60fd82be5a4ad41f00b77b18,611e07ecdcc96256ae8d5b80,611e6f981dae26d0a5977fd4,0.423,
,,,,space,,0,151,151,318,1,X, , , , ,,1500,1.5,,001,2021-08-19_15h51.00,natb3,2021.2.3,MacIntel,83.33333333,60fd82be5a4ad41f00b77b18,611e07ecdcc96256ae8d5b80,611e6f981dae26d0a5977fd4,0.406,
,,,,space,,0,152,152,38,1,R, , , , ,space,2500,2.5,,001,2021-08-19_15h51.00,natb3,2021.2.3,MacIntel,83.33333333,60fd82be5a4ad41f00b77b18,611e07ecdcc96256ae8d5b80,611e6f981dae26d0a5977fd4,0.355,
,,,,,,0,153,153,82,1,X,4,6,1,7,,2000,2,,001,2021-08-19_15h51.00,natb3,2021.2.3,MacIntel,83.33333333,60fd82be5a4ad41f00b77b18,611e07ecdcc96256ae8d5b80,611e6f981dae26d0a5977fd4,,
,,,,space,,0,154,154,112,1,Q, , , , ,space,2500,2.5,,001,2021-08-19_15h51.00,natb3,2021.2.3,MacIntel,83.33333333,60fd82be5a4ad41f00b77b18,611e07ecdcc96256ae8d5b80,611e6f981dae26d0a5977fd4,0.339,
,,,,space,,0,155,155,87,1,H, , , , ,space,1500,1.5,,001,2021-08-19_15h51.00,natb3,2021.2.3,MacIntel,83.33333333,60fd82be5a4ad41f00b77b18,611e07ecdcc96256ae8d5b80,611e6f981dae26d0a5977fd4,0.366,
,,,,space,,0,156,156,46,1,X, , , , ,,2000,2,,001,2021-08-19_15h51.00,natb3,2021.2.3,MacIntel,83.33333333,60fd82be5a4ad41f00b77b18,611e07ecdcc96256ae8d5b80,611e6f981dae26d0a5977fd4,0.295,
,,,,space,,0,157,157,117,1,T, , , , ,space,2500,2.5,,001,2021-08-19_15h51.00,natb3,2021.2.3,MacIntel,83.33333333,60fd82be5a4ad41f00b77b18,611e07ecdcc96256ae8d5b80,611e6f981dae26d0a5977fd4,0.372,
,,,,space,,0,158,158,178,1,Q, , , , ,space,1500,1.5,,001,2021-08-19_15h51.00,natb3,2021.2.3,MacIntel,83.33333333,60fd82be5a4ad41f00b77b18,611e07ecdcc96256ae8d5b80,611e6f981dae26d0a5977fd4,0.349,
,,,,,,0,159,159,187,1,X, ,3,7,4,,1500,1.5,,001,2021-08-19_15h51.00,natb3,2021.2.3,MacIntel,83.33333333,60fd82be5a4ad41f00b77b18,611e07ecdcc96256ae8d5b80,611e6f981dae26d0a5977fd4,,
,,,,space,,0,160,160,139,1,V, , , , ,space,2000,2,,001,2021-08-19_15h51.00,natb3,2021.2.3,MacIntel,83.33333333,60fd82be5a4ad41f00b77b18,611e07ecdcc96256ae8d5b80,611e6f981dae26d0a5977fd4,0.407,
,,,,space,,0,161,161,97,1,B, , , , ,space,2500,2.5,,001,2021-08-19_15h51.00,natb3,2021.2.3,MacIntel,83.33333333,60fd82be5a4ad41f00b77b18,611e07ecdcc96256ae8d5b80,611e6f981dae26d0a5977fd4,0.366,
,,,,,,0,162,162,15,1,X, , , , ,,1500,1.5,,001,2021-08-19_15h51.00,natb3,2021.2.3,MacIntel,83.33333333,60fd82be5a4ad41f00b77b18,611e07ecdcc96256ae8d5b80,611e6f981dae26d0a5977fd4,,
,,,,space,,0,163,163,266,1,O, , , , ,space,1500,1.5,,001,2021-08-19_15h51.00,natb3,2021.2.3,MacIntel,83.33333333,60fd82be5a4ad41f00b77b18,611e07ecdcc96256ae8d5b80,611e6f981dae26d0a5977fd4,0.368,
,,,,space,,0,164,164,261,1,T, , , , ,space,2000,2,,001,2021-08-19_15h51.00,natb3,2021.2.3,MacIntel,83.33333333,60fd82be5a4ad41f00b77b18,611e07ecdcc96256ae8d5b80,611e6f981dae26d0a5977fd4,0.325,
,,,,,,0,165,165,107,1,X,9,3, ,2,,2000,2,,001,2021-08-19_15h51.00,natb3,2021.2.3,MacIntel,83.33333333,60fd82be5a4ad41f00b77b18,611e07ecdcc96256ae8d5b80,611e6f981dae26d0a5977fd4,,
,,,,,,0,166,166,27,1,X,5, ,1,3,,1500,1.5,,001,2021-08-19_15h51.00,natb3,2021.2.3,MacIntel,83.33333333,60fd82be5a4ad41f00b77b18,611e07ecdcc96256ae8d5b80,611e6f981dae26d0a5977fd4,,
,,,,space,space,0,167,167,47,1,P, , , , ,space,2000,2,,001,2021-08-19_15h51.00,natb3,2021.2.3,MacIntel,83.33333333,60fd82be5a4ad41f00b77b18,611e07ecdcc96256ae8d5b80,611e6f981dae26d0a5977fd4,0.355,23.666
,,,,,,0,168,168,239,1,X, , , , ,,2000,2,,001,2021-08-19_15h51.00,natb3,2021.2.3,MacIntel,83.33333333,60fd82be5a4ad41f00b77b18,611e07ecdcc96256ae8d5b80,611e6f981dae26d0a5977fd4,,
,,,,space,,0,169,169,223,1,Q, , , , ,space,2000,2,,001,2021-08-19_15h51.00,natb3,2021.2.3,MacIntel,83.33333333,60fd82be5a4ad41f00b77b18,611e07ecdcc96256ae8d5b80,611e6f981dae26d0a5977fd4,0.315,
,,,,space,,0,170,170,50,1,D, , , , ,space,1500,1.5,,001,2021-08-19_15h51.00,natb3,2021.2.3,MacIntel,83.33333333,60fd82be5a4ad41f00b77b18,611e07ecdcc96256ae8d5b80,611e6f981dae26d0a5977fd4,0.33,
,,,,,,0,171,171,4,1,X, , , , ,,2000,2,,001,2021-08-19_15h51.00,natb3,2021.2.3,MacIntel,83.33333333,60fd82be5a4ad41f00b77b18,611e07ecdcc96256ae8d5b80,611e6f981dae26d0a5977fd4,,
,,,,,,0,172,172,168,1,X, , , , ,,2500,2.5,,001,2021-08-19_15h51.00,natb3,2021.2.3,MacIntel,83.33333333,60fd82be5a4ad41f00b77b18,611e07ecdcc96256ae8d5b80,611e6f981dae26d0a5977fd4,,
,,,,space,,0,173,173,320,1,B, , , , ,space,1500,1.5,,001,2021-08-19_15h51.00,natb3,2021.2.3,MacIntel,83.33333333,60fd82be5a4ad41f00b77b18,611e07ecdcc96256ae8d5b80,611e6f981dae26d0a5977fd4,0.372,
,,,,,,0,174,174,129,1,X,2,3,5, ,,1500,1.5,,001,2021-08-19_15h51.00,natb3,2021.2.3,MacIntel,83.33333333,60fd82be5a4ad41f00b77b18,611e07ecdcc96256ae8d5b80,611e6f981dae26d0a5977fd4,,
,,,,space,,0,175,175,196,1,F, , , , ,space,1500,1.5,,001,2021-08-19_15h51.00,natb3,2021.2.3,MacIntel,83.33333333,60fd82be5a4ad41f00b77b18,611e07ecdcc96256ae8d5b80,611e6f981dae26d0a5977fd4,0.323,
,,,,space,,0,176,176,327,1,E, , , , ,space,1500,1.5,,001,2021-08-19_15h51.00,natb3,2021.2.3,MacIntel,83.33333333,60fd82be5a4ad41f00b77b18,611e07ecdcc96256ae8d5b80,611e6f981dae26d0a5977fd4,0.368,
,,,,space,,0,177,177,254,1,M, , , , ,space,1500,1.5,,001,2021-08-19_15h51.00,natb3,2021.2.3,MacIntel,83.33333333,60fd82be5a4ad41f00b77b18,611e07ecdcc96256ae8d5b80,611e6f981dae26d0a5977fd4,0.415,
,,,,space,,0,178,178,99,1,N, , , , ,space,2500,2.5,,001,2021-08-19_15h51.00,natb3,2021.2.3,MacIntel,83.33333333,60fd82be5a4ad41f00b77b18,611e07ecdcc96256ae8d5b80,611e6f981dae26d0a5977fd4,0.291,
,,,,space,,0,179,179,147,1,E, , , , ,space,2000,2,,001,2021-08-19_15h51.00,natb3,2021.2.3,MacIntel,83.33333333,60fd82be5a4ad41f00b77b18,611e07ecdcc96256ae8d5b80,611e6f981dae26d0a5977fd4,0.301,
,,,,space,,0,180,180,83,1,D, , , , ,space,2000,2,,001,2021-08-19_15h51.00,natb3,2021.2.3,MacIntel,83.33333333,60fd82be5a4ad41f00b77b18,611e07ecdcc96256ae8d5b80,611e6f981dae26d0a5977fd4,0.314,
,,,,space,,0,181,181,53,1,G, , , , ,space,2500,2.5,,001,2021-08-19_15h51.00,natb3,2021.2.3,MacIntel,83.33333333,60fd82be5a4ad41f00b77b18,611e07ecdcc96256ae8d5b80,611e6f981dae26d0a5977fd4,0.307,
,,,,space,,0,182,182,212,1,Q, , , , ,space,2500,2.5,,001,2021-08-19_15h51.00,natb3,2021.2.3,MacIntel,83.33333333,60fd82be5a4ad41f00b77b18,611e07ecdcc96256ae8d5b80,611e6f981dae26d0a5977fd4,0.34,
,,,,space,,0,183,183,109,1,U, , , , ,space,1500,1.5,,001,2021-08-19_15h51.00,natb3,2021.2.3,MacIntel,83.33333333,60fd82be5a4ad41f00b77b18,611e07ecdcc96256ae8d5b80,611e6f981dae26d0a5977fd4,0.36,
,,,,,,0,184,184,66,1,X, ,4,7, ,,2000,2,,001,2021-08-19_15h51.00,natb3,2021.2.3,MacIntel,83.33333333,60fd82be5a4ad41f00b77b18,611e07ecdcc96256ae8d5b80,611e6f981dae26d0a5977fd4,,
,,,,space,,0,185,185,159,1,S, , , , ,space,2500,2.5,,001,2021-08-19_15h51.00,natb3,2021.2.3,MacIntel,83.33333333,60fd82be5a4ad41f00b77b18,611e07ecdcc96256ae8d5b80,611e6f981dae26d0a5977fd4,0.354,
,,,,space,,0,186,186,306,1,D, , , , ,space,2000,2,,001,2021-08-19_15h51.00,natb3,2021.2.3,MacIntel,83.33333333,60fd82be5a4ad41f00b77b18,611e07ecdcc96256ae8d5b80,611e6f981dae26d0a5977fd4,0.308,
,,,,space,,0,187,187,42,1,U, , , , ,space,1500,1.5,,001,2021-08-19_15h51.00,natb3,2021.2.3,MacIntel,83.33333333,60fd82be5a4ad41f00b77b18,611e07ecdcc96256ae8d5b80,611e6f981dae26d0a5977fd4,0.301,
,,,,space,,0,188,188,167,1,K, , , , ,space,1500,1.5,,001,2021-08-19_15h51.00,natb3,2021.2.3,MacIntel,83.33333333,60fd82be5a4ad41f00b77b18,611e07ecdcc96256ae8d5b80,611e6f981dae26d0a5977fd4,0.477,
,,,,space,,0,189,189,206,1,V, , , , ,space,2000,2,,001,2021-08-19_15h51.00,natb3,2021.2.3,MacIntel,83.33333333,60fd82be5a4ad41f00b77b18,611e07ecdcc96256ae8d5b80,611e6f981dae26d0a5977fd4,0.302,
,,,,space,,0,190,190,57,1,K, , , , ,space,2500,2.5,,001,2021-08-19_15h51.00,natb3,2021.2.3,MacIntel,83.33333333,60fd82be5a4ad41f00b77b18,611e07ecdcc96256ae8d5b80,611e6f981dae26d0a5977fd4,0.354,
,,,,space,,0,191,191,210,1,M, , , , ,space,1500,1.5,,001,2021-08-19_15h51.00,natb3,2021.2.3,MacIntel,83.33333333,60fd82be5a4ad41f00b77b18,611e07ecdcc96256ae8d5b80,611e6f981dae26d0a5977fd4,0.432,
,,,,,,0,192,192,287,1,X, ,2, ,9,,2000,2,,001,2021-08-19_15h51.00,natb3,2021.2.3,MacIntel,83.33333333,60fd82be5a4ad41f00b77b18,611e07ecdcc96256ae8d5b80,611e6f981dae26d0a5977fd4,,
,,,,space,,0,193,193,186,1,U, , , , ,space,2500,2.5,,001,2021-08-19_15h51.00,natb3,2021.2.3,MacIntel,83.33333333,60fd82be5a4ad41f00b77b18,611e07ecdcc96256ae8d5b80,611e6f981dae26d0a5977fd4,0.426,
,,,,space,,0,194,194,28,1,V, , , , ,space,1500,1.5,,001,2021-08-19_15h51.00,natb3,2021.2.3,MacIntel,83.33333333,60fd82be5a4ad41f00b77b18,611e07ecdcc96256ae8d5b80,611e6f981dae26d0a5977fd4,0.416,
,,,,space,,0,195,195,244,1,J, , , , ,space,1500,1.5,,001,2021-08-19_15h51.00,natb3,2021.2.3,MacIntel,83.33333333,60fd82be5a4ad41f00b77b18,611e07ecdcc96256ae8d5b80,611e6f981dae26d0a5977fd4,0.363,
,,,,space,,0,196,196,73,1,Y, , , , ,space,2000,2,,001,2021-08-19_15h51.00,natb3,2021.2.3,MacIntel,83.33333333,60fd82be5a4ad41f00b77b18,611e07ecdcc96256ae8d5b80,611e6f981dae26d0a5977fd4,0.441,
,,,,space,,0,197,197,58,1,L, , , , ,space,2000,2,,001,2021-08-19_15h51.00,natb3,2021.2.3,MacIntel,83.33333333,60fd82be5a4ad41f00b77b18,611e07ecdcc96256ae8d5b80,611e6f981dae26d0a5977fd4,0.418,
,,,,space,,0,198,198,288,1,M, , , , ,space,1500,1.5,,001,2021-08-19_15h51.00,natb3,2021.2.3,MacIntel,83.33333333,60fd82be5a4ad41f00b77b18,611e07ecdcc96256ae8d5b80,611e6f981dae26d0a5977fd4,0.331,
,,,,space,,0,199,199,201,1,K, , , , ,space,1500,1.5,,001,2021-08-19_15h51.00,natb3,2021.2.3,MacIntel,83.33333333,60fd82be5a4ad41f00b77b18,611e07ecdcc96256ae8d5b80,611e6f981dae26d0a5977fd4,0.3,
,,,,space,,0,200,200,25,1,Z, , , , ,space,2500,2.5,,001,2021-08-19_15h51.00,natb3,2021.2.3,MacIntel,83.33333333,60fd82be5a4ad41f00b77b18,611e07ecdcc96256ae8d5b80,611e6f981dae26d0a5977fd4,0.35,
,,,,space,,0,201,201,317,1,C, , , , ,space,2000,2,,001,2021-08-19_15h51.00,natb3,2021.2.3,MacIntel,83.33333333,60fd82be5a4ad41f00b77b18,611e07ecdcc96256ae8d5b80,611e6f981dae26d0a5977fd4,0.83,
,,,,space,,0,202,202,180,1,W, , , , ,space,2000,2,,001,2021-08-19_15h51.00,natb3,2021.2.3,MacIntel,83.33333333,60fd82be5a4ad41f00b77b18,611e07ecdcc96256ae8d5b80,611e6f981dae26d0a5977fd4,0.333,
,,,,space,,0,203,203,199,1,J, , , , ,space,2500,2.5,,001,2021-08-19_15h51.00,natb3,2021.2.3,MacIntel,83.33333333,60fd82be5a4ad41f00b77b18,611e07ecdcc96256ae8d5b80,611e6f981dae26d0a5977fd4,0.295,
,,,,space,,0,204,204,220,1,U, , , , ,space,2500,2.5,,001,2021-08-19_15h51.00,natb3,2021.2.3,MacIntel,83.33333333,60fd82be5a4ad41f00b77b18,611e07ecdcc96256ae8d5b80,611e6f981dae26d0a5977fd4,0.349,
,,,,space,,0,205,205,41,1,Y, , , , ,space,2500,2.5,,001,2021-08-19_15h51.00,natb3,2021.2.3,MacIntel,83.33333333,60fd82be5a4ad41f00b77b18,611e07ecdcc96256ae8d5b80,611e6f981dae26d0a5977fd4,0.29,
,,,,space,,0,206,206,195,1,X, , , , ,,1500,1.5,,001,2021-08-19_15h51.00,natb3,2021.2.3,MacIntel,83.33333333,60fd82be5a4ad41f00b77b18,611e07ecdcc96256ae8d5b80,611e6f981dae26d0a5977fd4,0.365,
,,,,,,0,207,207,98,1,X, , , , ,,2500,2.5,,001,2021-08-19_15h51.00,natb3,2021.2.3,MacIntel,83.33333333,60fd82be5a4ad41f00b77b18,611e07ecdcc96256ae8d5b80,611e6f981dae26d0a5977fd4,,
,,,,space,,0,208,208,14,1,S, , , , ,space,2500,2.5,,001,2021-08-19_15h51.00,natb3,2021.2.3,MacIntel,83.33333333,60fd82be5a4ad41f00b77b18,611e07ecdcc96256ae8d5b80,611e6f981dae26d0a5977fd4,0.389,
,,,,,,0,209,209,133,1,X, ,4, ,6,,2500,2.5,,001,2021-08-19_15h51.00,natb3,2021.2.3,MacIntel,83.33333333,60fd82be5a4ad41f00b77b18,611e07ecdcc96256ae8d5b80,611e6f981dae26d0a5977fd4,,
,,,,space,,0,210,210,0,1,Q, , , , ,space,1500,1.5,,001,2021-08-19_15h51.00,natb3,2021.2.3,MacIntel,83.33333333,60fd82be5a4ad41f00b77b18,611e07ecdcc96256ae8d5b80,611e6f981dae26d0a5977fd4,0.427,
,,,,space,,0,211,211,176,1,N, , , , ,space,1500,1.5,,001,2021-08-19_15h51.00,natb3,2021.2.3,MacIntel,83.33333333,60fd82be5a4ad41f00b77b18,611e07ecdcc96256ae8d5b80,611e6f981dae26d0a5977fd4,0.382,
,,,,,,0,212,212,51,1,X,7,5,8, ,,1500,1.5,,001,2021-08-19_15h51.00,natb3,2021.2.3,MacIntel,83.33333333,60fd82be5a4ad41f00b77b18,611e07ecdcc96256ae8d5b80,611e6f981dae26d0a5977fd4,,
,,,,space,,0,213,213,231,1,I, , , , ,space,2500,2.5,,001,2021-08-19_15h51.00,natb3,2021.2.3,MacIntel,83.33333333,60fd82be5a4ad41f00b77b18,611e07ecdcc96256ae8d5b80,611e6f981dae26d0a5977fd4,0.383,
,,,,space,,0,214,214,126,1,A, , , , ,space,2500,2.5,,001,2021-08-19_15h51.00,natb3,2021.2.3,MacIntel,83.33333333,60fd82be5a4ad41f00b77b18,611e07ecdcc96256ae8d5b80,611e6f981dae26d0a5977fd4,0.333,
,,,,,,0,215,215,122,1,X,1, , ,8,,1500,1.5,,001,2021-08-19_15h51.00,natb3,2021.2.3,MacIntel,83.33333333,60fd82be5a4ad41f00b77b18,611e07ecdcc96256ae8d5b80,611e6f981dae26d0a5977fd4,,
,,,,,,0,216,216,118,1,X, , , , ,,2000,2,,001,2021-08-19_15h51.00,natb3,2021.2.3,MacIntel,83.33333333,60fd82be5a4ad41f00b77b18,611e07ecdcc96256ae8d5b80,611e6f981dae26d0a5977fd4,,
,,,,space,,0,217,217,190,1,P, , , , ,space,2000,2,,001,2021-08-19_15h51.00,natb3,2021.2.3,MacIntel,83.33333333,60fd82be5a4ad41f00b77b18,611e07ecdcc96256ae8d5b80,611e6f981dae26d0a5977fd4,0.33,
,,,,space,,0,218,218,270,1,S, , , , ,space,1500,1.5,,001,2021-08-19_15h51.00,natb3,2021.2.3,MacIntel,83.33333333,60fd82be5a4ad41f00b77b18,611e07ecdcc96256ae8d5b80,611e6f981dae26d0a5977fd4,0.36,
,,,,,,0,219,219,243,1,X, , , , ,,2500,2.5,,001,2021-08-19_15h51.00,natb3,2021.2.3,MacIntel,83.33333333,60fd82be5a4ad41f00b77b18,611e07ecdcc96256ae8d5b80,611e6f981dae26d0a5977fd4,,
,,,,space,,0,220,220,34,1,Q, , , , ,space,2500,2.5,,001,2021-08-19_15h51.00,natb3,2021.2.3,MacIntel,83.33333333,60fd82be5a4ad41f00b77b18,611e07ecdcc96256ae8d5b80,611e6f981dae26d0a5977fd4,0.375,
,,,,,,0,221,221,259,1,X,8, , ,3,,2500,2.5,,001,2021-08-19_15h51.00,natb3,2021.2.3,MacIntel,83.33333333,60fd82be5a4ad41f00b77b18,611e07ecdcc96256ae8d5b80,611e6f981dae26d0a5977fd4,,
,,,,,,0,222,222,203,1,X, , , , ,,2500,2.5,,001,2021-08-19_15h51.00,natb3,2021.2.3,MacIntel,83.33333333,60fd82be5a4ad41f00b77b18,611e07ecdcc96256ae8d5b80,611e6f981dae26d0a5977fd4,,
,,,,space,,0,223,223,328,1,R, , , , ,space,1500,1.5,,001,2021-08-19_15h51.00,natb3,2021.2.3,MacIntel,83.33333333,60fd82be5a4ad41f00b77b18,611e07ecdcc96256ae8d5b80,611e6f981dae26d0a5977fd4,0.402,
,,,,space,,0,224,224,267,1,P, , , , ,space,2000,2,,001,2021-08-19_15h51.00,natb3,2021.2.3,MacIntel,83.33333333,60fd82be5a4ad41f00b77b18,611e07ecdcc96256ae8d5b80,611e6f981dae26d0a5977fd4,0.334,
,,,,space,,0,225,225,230,1,U, , , , ,space,1500,1.5,,001,2021-08-19_15h51.00,natb3,2021.2.3,MacIntel,83.33333333,60fd82be5a4ad41f00b77b18,611e07ecdcc96256ae8d5b80,611e6f981dae26d0a5977fd4,0.381,
,,,,space,,0,226,226,150,1,T, , , , ,space,2500,2.5,,001,2021-08-19_15h51.00,natb3,2021.2.3,MacIntel,83.33333333,60fd82be5a4ad41f00b77b18,611e07ecdcc96256ae8d5b80,611e6f981dae26d0a5977fd4,0.342,
,,,,space,,0,227,227,166,1,X, , , , ,,2000,2,,001,2021-08-19_15h51.00,natb3,2021.2.3,MacIntel,83.33333333,60fd82be5a4ad41f00b77b18,611e07ecdcc96256ae8d5b80,611e6f981dae26d0a5977fd4,0.351,
,,,,space,,0,228,228,333,1,I, , , , ,space,1500,1.5,,001,2021-08-19_15h51.00,natb3,2021.2.3,MacIntel,83.33333333,60fd82be5a4ad41f00b77b18,611e07ecdcc96256ae8d5b80,611e6f981dae26d0a5977fd4,0.503,
,,,,space,,0,229,229,216,1,R, , , , ,space,1500,1.5,,001,2021-08-19_15h51.00,natb3,2021.2.3,MacIntel,83.33333333,60fd82be5a4ad41f00b77b18,611e07ecdcc96256ae8d5b80,611e6f981dae26d0a5977fd4,0.49,
,,,,space,,0,230,230,92,1,Z, , , , ,space,1500,1.5,,001,2021-08-19_15h51.00,natb3,2021.2.3,MacIntel,83.33333333,60fd82be5a4ad41f00b77b18,611e07ecdcc96256ae8d5b80,611e6f981dae26d0a5977fd4,0.297,
,,,,,,0,231,231,148,1,X, , , , ,,2000,2,,001,2021-08-19_15h51.00,natb3,2021.2.3,MacIntel,83.33333333,60fd82be5a4ad41f00b77b18,611e07ecdcc96256ae8d5b80,611e6f981dae26d0a5977fd4,,
,,,,space,,0,232,232,160,1,D, , , , ,space,1500,1.5,,001,2021-08-19_15h51.00,natb3,2021.2.3,MacIntel,83.33333333,60fd82be5a4ad41f00b77b18,611e07ecdcc96256ae8d5b80,611e6f981dae26d0a5977fd4,0.374,
,,,,space,,0,233,233,44,1,I, , , , ,space,2500,2.5,,001,2021-08-19_15h51.00,natb3,2021.2.3,MacIntel,83.33333333,60fd82be5a4ad41f00b77b18,611e07ecdcc96256ae8d5b80,611e6f981dae26d0a5977fd4,0.426,
,,,,space,,0,234,234,6,1,Y, , , , ,space,2500,2.5,,001,2021-08-19_15h51.00,natb3,2021.2.3,MacIntel,83.33333333,60fd82be5a4ad41f00b77b18,611e07ecdcc96256ae8d5b80,611e6f981dae26d0a5977fd4,0.359,
,,,,,,0,235,235,305,1,X, , , , ,,1500,1.5,,001,2021-08-19_15h51.00,natb3,2021.2.3,MacIntel,83.33333333,60fd82be5a4ad41f00b77b18,611e07ecdcc96256ae8d5b80,611e6f981dae26d0a5977fd4,,
,,,,space,,0,236,236,49,1,S, , , , ,space,1500,1.5,,001,2021-08-19_15h51.00,natb3,2021.2.3,MacIntel,83.33333333,60fd82be5a4ad41f00b77b18,611e07ecdcc96256ae8d5b80,611e6f981dae26d0a5977fd4,0.339,
,,,,space,,0,237,237,312,1,K, , , , ,space,2000,2,,001,2021-08-19_15h51.00,natb3,2021.2.3,MacIntel,83.33333333,60fd82be5a4ad41f00b77b18,611e07ecdcc96256ae8d5b80,611e6f981dae26d0a5977fd4,0.393,
,,,,space,,0,238,238,255,1,X, , , , ,,1500,1.5,,001,2021-08-19_15h51.00,natb3,2021.2.3,MacIntel,83.33333333,60fd82be5a4ad41f00b77b18,611e07ecdcc96256ae8d5b80,611e6f981dae26d0a5977fd4,0.359,
,,,,space,,0,239,239,26,1,C, , , , ,space,2000,2,,001,2021-08-19_15h51.00,natb3,2021.2.3,MacIntel,83.33333333,60fd82be5a4ad41f00b77b18,611e07ecdcc96256ae8d5b80,611e6f981dae26d0a5977fd4,0.443,
,,,,space,,0,240,240,323,1,M, , , , ,space,2500,2.5,,001,2021-08-19_15h51.00,natb3,2021.2.3,MacIntel,83.33333333,60fd82be5a4ad41f00b77b18,611e07ecdcc96256ae8d5b80,611e6f981dae26d0a5977fd4,0.368,
,,,,space,,0,241,241,55,1,H, , , , ,space,2500,2.5,,001,2021-08-19_15h51.00,natb3,2021.2.3,MacIntel,83.33333333,60fd82be5a4ad41f00b77b18,611e07ecdcc96256ae8d5b80,611e6f981dae26d0a5977fd4,0.355,
,,,,space,,0,242,242,70,1,E, , , , ,space,2500,2.5,,001,2021-08-19_15h51.00,natb3,2021.2.3,MacIntel,83.33333333,60fd82be5a4ad41f00b77b18,611e07ecdcc96256ae8d5b80,611e6f981dae26d0a5977fd4,0.407,
,,,,space,,0,243,243,135,1,K, , , , ,space,1500,1.5,,001,2021-08-19_15h51.00,natb3,2021.2.3,MacIntel,83.33333333,60fd82be5a4ad41f00b77b18,611e07ecdcc96256ae8d5b80,611e6f981dae26d0a5977fd4,0.348,
,,,,,,0,244,244,39,1,X,6,2, , ,,1500,1.5,,001,2021-08-19_15h51.00,natb3,2021.2.3,MacIntel,83.33333333,60fd82be5a4ad41f00b77b18,611e07ecdcc96256ae8d5b80,611e6f981dae26d0a5977fd4,,
,,,,,,0,245,245,125,1,X, , , , ,,2000,2,,001,2021-08-19_15h51.00,natb3,2021.2.3,MacIntel,83.33333333,60fd82be5a4ad41f00b77b18,611e07ecdcc96256ae8d5b80,611e6f981dae26d0a5977fd4,,
,,,,space,,0,246,246,281,1,Z, , , , ,space,1500,1.5,,001,2021-08-19_15h51.00,natb3,2021.2.3,MacIntel,83.33333333,60fd82be5a4ad41f00b77b18,611e07ecdcc96256ae8d5b80,611e6f981dae26d0a5977fd4,0.414,
,,,,space,,0,247,247,208,1,B, , , , ,space,1500,1.5,,001,2021-08-19_15h51.00,natb3,2021.2.3,MacIntel,83.33333333,60fd82be5a4ad41f00b77b18,611e07ecdcc96256ae8d5b80,611e6f981dae26d0a5977fd4,0.388,
,,,,space,,0,248,248,88,1,J, , , , ,space,2500,2.5,,001,2021-08-19_15h51.00,natb3,2021.2.3,MacIntel,83.33333333,60fd82be5a4ad41f00b77b18,611e07ecdcc96256ae8d5b80,611e6f981dae26d0a5977fd4,0.369,
,,,,space,,0,249,249,20,1,H, , , , ,space,1500,1.5,,001,2021-08-19_15h51.00,natb3,2021.2.3,MacIntel,83.33333333,60fd82be5a4ad41f00b77b18,611e07ecdcc96256ae8d5b80,611e6f981dae26d0a5977fd4,0.373,
,,,,,,0,250,250,211,1,X, , , , ,,2500,2.5,,001,2021-08-19_15h51.00,natb3,2021.2.3,MacIntel,83.33333333,60fd82be5a4ad41f00b77b18,611e07ecdcc96256ae8d5b80,611e6f981dae26d0a5977fd4,,
,,,,space,,0,251,251,79,1,P, , , , ,space,2000,2,,001,2021-08-19_15h51.00,natb3,2021.2.3,MacIntel,83.33333333,60fd82be5a4ad41f00b77b18,611e07ecdcc96256ae8d5b80,611e6f981dae26d0a5977fd4,0.38,
,,,,space,,0,252,252,260,1,R, , , , ,space,2000,2,,001,2021-08-19_15h51.00,natb3,2021.2.3,MacIntel,83.33333333,60fd82be5a4ad41f00b77b18,611e07ecdcc96256ae8d5b80,611e6f981dae26d0a5977fd4,0.357,
,,,,space,,0,253,253,8,1,U, , , , ,space,1500,1.5,,001,2021-08-19_15h51.00,natb3,2021.2.3,MacIntel,83.33333333,60fd82be5a4ad41f00b77b18,611e07ecdcc96256ae8d5b80,611e6f981dae26d0a5977fd4,0.349,
,,,,space,,0,254,254,283,1,C, , , , ,space,1500,1.5,,001,2021-08-19_15h51.00,natb3,2021.2.3,MacIntel,83.33333333,60fd82be5a4ad41f00b77b18,611e07ecdcc96256ae8d5b80,611e6f981dae26d0a5977fd4,0.423,
,,,,,,0,255,255,54,1,X, , , , ,,2000,2,,001,2021-08-19_15h51.00,natb3,2021.2.3,MacIntel,83.33333333,60fd82be5a4ad41f00b77b18,611e07ecdcc96256ae8d5b80,611e6f981dae26d0a5977fd4,,
,,,,space,,0,256,256,140,1,B, , , , ,space,2500,2.5,,001,2021-08-19_15h51.00,natb3,2021.2.3,MacIntel,83.33333333,60fd82be5a4ad41f00b77b18,611e07ecdcc96256ae8d5b80,611e6f981dae26d0a5977fd4,0.365,
,,,,space,,0,257,257,294,1,T, , , , ,space,2000,2,,001,2021-08-19_15h51.00,natb3,2021.2.3,MacIntel,83.33333333,60fd82be5a4ad41f00b77b18,611e07ecdcc96256ae8d5b80,611e6f981dae26d0a5977fd4,0.469,
,,,,space,,0,258,258,114,1,E, , , , ,space,2000,2,,001,2021-08-19_15h51.00,natb3,2021.2.3,MacIntel,83.33333333,60fd82be5a4ad41f00b77b18,611e07ecdcc96256ae8d5b80,611e6f981dae26d0a5977fd4,0.396,
,,,,,,0,259,259,315,1,X, , , , ,,2500,2.5,,001,2021-08-19_15h51.00,natb3,2021.2.3,MacIntel,83.33333333,60fd82be5a4ad41f00b77b18,611e07ecdcc96256ae8d5b80,611e6f981dae26d0a5977fd4,,
,,,,,,0,260,260,84,1,X, , , , ,,2000,2,,001,2021-08-19_15h51.00,natb3,2021.2.3,MacIntel,83.33333333,60fd82be5a4ad41f00b77b18,611e07ecdcc96256ae8d5b80,611e6f981dae26d0a5977fd4,,
,,,,,,0,261,261,96,1,X, , , , ,,1500,1.5,,001,2021-08-19_15h51.00,natb3,2021.2.3,MacIntel,83.33333333,60fd82be5a4ad41f00b77b18,611e07ecdcc96256ae8d5b80,611e6f981dae26d0a5977fd4,,
,,,,space,,0,262,262,204,1,Z, , , , ,space,2000,2,,001,2021-08-19_15h51.00,natb3,2021.2.3,MacIntel,83.33333333,60fd82be5a4ad41f00b77b18,611e07ecdcc96256ae8d5b80,611e6f981dae26d0a5977fd4,0.36,
,,,,space,,0,263,263,174,1,B, , , , ,space,2500,2.5,,001,2021-08-19_15h51.00,natb3,2021.2.3,MacIntel,83.33333333,60fd82be5a4ad41f00b77b18,611e07ecdcc96256ae8d5b80,611e6f981dae26d0a5977fd4,0.375,
,,,,space,,0,264,264,152,1,U, , , , ,space,2000,2,,001,2021-08-19_15h51.00,natb3,2021.2.3,MacIntel,83.33333333,60fd82be5a4ad41f00b77b18,611e07ecdcc96256ae8d5b80,611e6f981dae26d0a5977fd4,0.325,
,,,,space,,0,265,265,32,1,M, , , , ,space,1500,1.5,,001,2021-08-19_15h51.00,natb3,2021.2.3,MacIntel,83.33333333,60fd82be5a4ad41f00b77b18,611e07ecdcc96256ae8d5b80,611e6f981dae26d0a5977fd4,0.443,
,,,,,,0,266,266,200,1,X,7, ,5,3,,1500,1.5,,001,2021-08-19_15h51.00,natb3,2021.2.3,MacIntel,83.33333333,60fd82be5a4ad41f00b77b18,611e07ecdcc96256ae8d5b80,611e6f981dae26d0a5977fd4,,
,,,,,,0,267,267,162,1,X,1,6, ,2,,1500,1.5,,001,2021-08-19_15h51.00,natb3,2021.2.3,MacIntel,83.33333333,60fd82be5a4ad41f00b77b18,611e07ecdcc96256ae8d5b80,611e6f981dae26d0a5977fd4,,
,,,,space,,0,268,268,72,1,T, , , , ,space,1500,1.5,,001,2021-08-19_15h51.00,natb3,2021.2.3,MacIntel,83.33333333,60fd82be5a4ad41f00b77b18,611e07ecdcc96256ae8d5b80,611e6f981dae26d0a5977fd4,0.382,
,,,,,,0,269,269,31,1,X, , , , ,,1500,1.5,,001,2021-08-19_15h51.00,natb3,2021.2.3,MacIntel,83.33333333,60fd82be5a4ad41f00b77b18,611e07ecdcc96256ae8d5b80,611e6f981dae26d0a5977fd4,,
,,,,space,,0,270,270,285,1,B, , , , ,space,1500,1.5,,001,2021-08-19_15h51.00,natb3,2021.2.3,MacIntel,83.33333333,60fd82be5a4ad41f00b77b18,611e07ecdcc96256ae8d5b80,611e6f981dae26d0a5977fd4,0.374,
,,,,space,,0,271,271,326,1,W, , , , ,space,2000,2,,001,2021-08-19_15h51.00,natb3,2021.2.3,MacIntel,83.33333333,60fd82be5a4ad41f00b77b18,611e07ecdcc96256ae8d5b80,611e6f981dae26d0a5977fd4,0.456,
,,,,,,0,272,272,218,1,X,1,3, ,8,,1500,1.5,,001,2021-08-19_15h51.00,natb3,2021.2.3,MacIntel,83.33333333,60fd82be5a4ad41f00b77b18,611e07ecdcc96256ae8d5b80,611e6f981dae26d0a5977fd4,,
,,,,space,,0,273,273,308,1,G, , , , ,space,1500,1.5,,001,2021-08-19_15h51.00,natb3,2021.2.3,MacIntel,83.33333333,60fd82be5a4ad41f00b77b18,611e07ecdcc96256ae8d5b80,611e6f981dae26d0a5977fd4,0.424,
,,,,space,,0,274,274,169,1,L, , , , ,space,2500,2.5,,001,2021-08-19_15h51.00,natb3,2021.2.3,MacIntel,83.33333333,60fd82be5a4ad41f00b77b18,611e07ecdcc96256ae8d5b80,611e6f981dae26d0a5977fd4,0.432,
,,,,space,,0,275,275,224,1,W, , , , ,space,1500,1.5,,001,2021-08-19_15h51.00,natb3,2021.2.3,MacIntel,83.33333333,60fd82be5a4ad41f00b77b18,611e07ecdcc96256ae8d5b80,611e6f981dae26d0a5977fd4,0.482,
,,,,space,,0,276,276,246,1,L, , , , ,space,2500,2.5,,001,2021-08-19_15h51.00,natb3,2021.2.3,MacIntel,83.33333333,60fd82be5a4ad41f00b77b18,611e07ecdcc96256ae8d5b80,611e6f981dae26d0a5977fd4,0.446,
,,,,,,0,277,277,23,1,X,1, ,5, ,,2000,2,,001,2021-08-19_15h51.00,natb3,2021.2.3,MacIntel,83.33333333,60fd82be5a4ad41f00b77b18,611e07ecdcc96256ae8d5b80,611e6f981dae26d0a5977fd4,,
,,,,space,,0,278,278,215,1,E, , , , ,space,2500,2.5,,001,2021-08-19_15h51.00,natb3,2021.2.3,MacIntel,83.33333333,60fd82be5a4ad41f00b77b18,611e07ecdcc96256ae8d5b80,611e6f981dae26d0a5977fd4,0.438,
,,,,space,,0,279,279,81,1,S, , , , ,space,2000,2,,001,2021-08-19_15h51.00,natb3,2021.2.3,MacIntel,83.33333333,60fd82be5a4ad41f00b77b18,611e07ecdcc96256ae8d5b80,611e6f981dae26d0a5977fd4,0.745,
,,,,space,,0,280,280,76,1,I, , , , ,space,2000,2,,001,2021-08-19_15h51.00,natb3,2021.2.3,MacIntel,83.33333333,60fd82be5a4ad41f00b77b18,611e07ecdcc96256ae8d5b80,611e6f981dae26d0a5977fd4,0.465,
,,,,space,,0,281,281,123,1,O, , , , ,space,1500,1.5,,001,2021-08-19_15h51.00,natb3,2021.2.3,MacIntel,83.33333333,60fd82be5a4ad41f00b77b18,611e07ecdcc96256ae8d5b80,611e6f981dae26d0a5977fd4,0.373,
,,,,,,0,282,282,43,1,X, ,6, ,2,,2500,2.5,,001,2021-08-19_15h51.00,natb3,2021.2.3,MacIntel,83.33333333,60fd82be5a4ad41f00b77b18,611e07ecdcc96256ae8d5b80,611e6f981dae26d0a5977fd4,,
,,,,,,0,283,283,252,1,X,3, ,6,9,,2000,2,,001,2021-08-19_15h51.00,natb3,2021.2.3,MacIntel,83.33333333,60fd82be5a4ad41f00b77b18,611e07ecdcc96256ae8d5b80,611e6f981dae26d0a5977fd4,,
,,,,,,0,284,284,158,1,X, , , , ,,1500,1.5,,001,2021-08-19_15h51.00,natb3,2021.2.3,MacIntel,83.33333333,60fd82be5a4ad41f00b77b18,611e07ecdcc96256ae8d5b80,611e6f981dae26d0a5977fd4,,
,,,,,,0,285,285,236,1,X,3, ,4,7,,2500,2.5,,001,2021-08-19_15h51.00,natb3,2021.2.3,MacIntel,83.33333333,60fd82be5a4ad41f00b77b18,611e07ecdcc96256ae8d5b80,611e6f981dae26d0a5977fd4,,
,,,,space,,0,286,286,63,1,B, , , , ,space,2000,2,,001,2021-08-19_15h51.00,natb3,2021.2.3,MacIntel,83.33333333,60fd82be5a4ad41f00b77b18,611e07ecdcc96256ae8d5b80,611e6f981dae26d0a5977fd4,0.45,
,,,,space,,0,287,287,286,1,N, , , , ,space,1500,1.5,,001,2021-08-19_15h51.00,natb3,2021.2.3,MacIntel,83.33333333,60fd82be5a4ad41f00b77b18,611e07ecdcc96256ae8d5b80,611e6f981dae26d0a5977fd4,0.415,
,,,,space,,0,288,288,300,1,O, , , , ,space,2500,2.5,,001,2021-08-19_15h51.00,natb3,2021.2.3,MacIntel,83.33333333,60fd82be5a4ad41f00b77b18,611e07ecdcc96256ae8d5b80,611e6f981dae26d0a5977fd4,0.389,
,,,,space,,0,289,289,192,1,A, , , , ,space,2000,2,,001,2021-08-19_15h51.00,natb3,2021.2.3,MacIntel,83.33333333,60fd82be5a4ad41f00b77b18,611e07ecdcc96256ae8d5b80,611e6f981dae26d0a5977fd4,0.385,
,,,,space,,0,290,290,100,1,M, , , , ,space,2000,2,,001,2021-08-19_15h51.00,natb3,2021.2.3,MacIntel,83.33333333,60fd82be5a4ad41f00b77b18,611e07ecdcc96256ae8d5b80,611e6f981dae26d0a5977fd4,0.323,
,,,,space,,0,291,291,332,1,U, , , , ,space,2000,2,,001,2021-08-19_15h51.00,natb3,2021.2.3,MacIntel,83.33333333,60fd82be5a4ad41f00b77b18,611e07ecdcc96256ae8d5b80,611e6f981dae26d0a5977fd4,0.288,
,,,,space,,0,292,292,128,1,D, , , , ,space,2500,2.5,,001,2021-08-19_15h51.00,natb3,2021.2.3,MacIntel,83.33333333,60fd82be5a4ad41f00b77b18,611e07ecdcc96256ae8d5b80,611e6f981dae26d0a5977fd4,0.431,
,,,,space,,0,293,293,91,1,L, , , , ,space,2000,2,,001,2021-08-19_15h51.00,natb3,2021.2.3,MacIntel,83.33333333,60fd82be5a4ad41f00b77b18,611e07ecdcc96256ae8d5b80,611e6f981dae26d0a5977fd4,0.447,
,,,,,,0,294,294,291,1,X, , , , ,,2000,2,,001,2021-08-19_15h51.00,natb3,2021.2.3,MacIntel,83.33333333,60fd82be5a4ad41f00b77b18,611e07ecdcc96256ae8d5b80,611e6f981dae26d0a5977fd4,,
,,,,space,,0,295,295,68,1,W, , , , ,space,2500,2.5,,001,2021-08-19_15h51.00,natb3,2021.2.3,MacIntel,83.33333333,60fd82be5a4ad41f00b77b18,611e07ecdcc96256ae8d5b80,611e6f981dae26d0a5977fd4,0.373,
,,,,space,,0,296,296,48,1,A, , , , ,space,2500,2.5,,001,2021-08-19_15h51.00,natb3,2021.2.3,MacIntel,83.33333333,60fd82be5a4ad41f00b77b18,611e07ecdcc96256ae8d5b80,611e6f981dae26d0a5977fd4,0.748,
,,,,space,,0,297,297,64,1,N, , , , ,space,2000,2,,001,2021-08-19_15h51.00,natb3,2021.2.3,MacIntel,83.33333333,60fd82be5a4ad41f00b77b18,611e07ecdcc96256ae8d5b80,611e6f981dae26d0a5977fd4,0.485,
,,,,space,,0,298,298,65,1,M, , , , ,space,1500,1.5,,001,2021-08-19_15h51.00,natb3,2021.2.3,MacIntel,83.33333333,60fd82be5a4ad41f00b77b18,611e07ecdcc96256ae8d5b80,611e6f981dae26d0a5977fd4,0.465,
,,,,,,0,299,299,282,1,X, , , , ,,2500,2.5,,001,2021-08-19_15h51.00,natb3,2021.2.3,MacIntel,83.33333333,60fd82be5a4ad41f00b77b18,611e07ecdcc96256ae8d5b80,611e6f981dae26d0a5977fd4,,
,,,,space,,0,300,300,185,1,Y, , , , ,space,2500,2.5,,001,2021-08-19_15h51.00,natb3,2021.2.3,MacIntel,83.33333333,60fd82be5a4ad41f00b77b18,611e07ecdcc96256ae8d5b80,611e6f981dae26d0a5977fd4,0.407,
,,,,space,,0,301,301,52,1,F, , , , ,space,1500,1.5,,001,2021-08-19_15h51.00,natb3,2021.2.3,MacIntel,83.33333333,60fd82be5a4ad41f00b77b18,611e07ecdcc96256ae8d5b80,611e6f981dae26d0a5977fd4,0.366,
,,,,,,0,302,302,102,1,X, ,6, , ,,1500,1.5,,001,2021-08-19_15h51.00,natb3,2021.2.3,MacIntel,83.33333333,60fd82be5a4ad41f00b77b18,611e07ecdcc96256ae8d5b80,611e6f981dae26d0a5977fd4,,
,,,,space,,0,303,303,131,1,G, , , , ,space,1500,1.5,,001,2021-08-19_15h51.00,natb3,2021.2.3,MacIntel,83.33333333,60fd82be5a4ad41f00b77b18,611e07ecdcc96256ae8d5b80,611e6f981dae26d0a5977fd4,0.363,
,,,,space,,0,304,304,238,1,D, , , , ,space,1500,1.5,,001,2021-08-19_15h51.00,natb3,2021.2.3,MacIntel,83.33333333,60fd82be5a4ad41f00b77b18,611e07ecdcc96256ae8d5b80,611e6f981dae26d0a5977fd4,0.373,
,,,,space,,0,305,305,164,1,H, , , , ,space,2500,2.5,,001,2021-08-19_15h51.00,natb3,2021.2.3,MacIntel,83.33333333,60fd82be5a4ad41f00b77b18,611e07ecdcc96256ae8d5b80,611e6f981dae26d0a5977fd4,0.444,
,,,,space,,0,306,306,324,1,Q, , , , ,space,2000,2,,001,2021-08-19_15h51.00,natb3,2021.2.3,MacIntel,83.33333333,60fd82be5a4ad41f00b77b18,611e07ecdcc96256ae8d5b80,611e6f981dae26d0a5977fd4,0.398,
,,,,space,,0,307,307,149,1,R, , , , ,space,2000,2,,001,2021-08-19_15h51.00,natb3,2021.2.3,MacIntel,83.33333333,60fd82be5a4ad41f00b77b18,611e07ecdcc96256ae8d5b80,611e6f981dae26d0a5977fd4,0.34,
,,,,space,,0,308,308,227,1,T, , , , ,space,1500,1.5,,001,2021-08-19_15h51.00,natb3,2021.2.3,MacIntel,83.33333333,60fd82be5a4ad41f00b77b18,611e07ecdcc96256ae8d5b80,611e6f981dae26d0a5977fd4,0.412,
,,,,,,0,309,309,299,1,X, , , , ,,2500,2.5,,001,2021-08-19_15h51.00,natb3,2021.2.3,MacIntel,83.33333333,60fd82be5a4ad41f00b77b18,611e07ecdcc96256ae8d5b80,611e6f981dae26d0a5977fd4,,
,,,,,,0,310,310,311,1,X,1,2,7,3,,2500,2.5,,001,2021-08-19_15h51.00,natb3,2021.2.3,MacIntel,83.33333333,60fd82be5a4ad41f00b77b18,611e07ecdcc96256ae8d5b80,611e6f981dae26d0a5977fd4,,
,,,,space,,0,311,311,197,1,G, , , , ,space,2500,2.5,,001,2021-08-19_15h51.00,natb3,2021.2.3,MacIntel,83.33333333,60fd82be5a4ad41f00b77b18,611e07ecdcc96256ae8d5b80,611e6f981dae26d0a5977fd4,0.366,
,,,,space,,0,312,312,11,1,P, , , , ,space,2500,2.5,,001,2021-08-19_15h51.00,natb3,2021.2.3,MacIntel,83.33333333,60fd82be5a4ad41f00b77b18,611e07ecdcc96256ae8d5b80,611e6f981dae26d0a5977fd4,0.352,
,,,,space,,0,313,313,303,1,A, , , , ,space,2000,2,,001,2021-08-19_15h51.00,natb3,2021.2.3,MacIntel,83.33333333,60fd82be5a4ad41f00b77b18,611e07ecdcc96256ae8d5b80,611e6f981dae26d0a5977fd4,0.43,
,,,,space,,0,314,314,194,1,D, , , , ,space,2000,2,,001,2021-08-19_15h51.00,natb3,2021.2.3,MacIntel,83.33333333,60fd82be5a4ad41f00b77b18,611e07ecdcc96256ae8d5b80,611e6f981dae26d0a5977fd4,0.348,
,,,,space,,0,315,315,222,1,O, , , , ,space,2000,2,,001,2021-08-19_15h51.00,natb3,2021.2.3,MacIntel,83.33333333,60fd82be5a4ad41f00b77b18,611e07ecdcc96256ae8d5b80,611e6f981dae26d0a5977fd4,0.333,
,,,,space,,0,316,316,209,1,N, , , , ,space,2000,2,,001,2021-08-19_15h51.00,natb3,2021.2.3,MacIntel,83.33333333,60fd82be5a4ad41f00b77b18,611e07ecdcc96256ae8d5b80,611e6f981dae26d0a5977fd4,0.308,
,,,,,,0,317,317,213,1,X, , , , ,,2500,2.5,,001,2021-08-19_15h51.00,natb3,2021.2.3,MacIntel,83.33333333,60fd82be5a4ad41f00b77b18,611e07ecdcc96256ae8d5b80,611e6f981dae26d0a5977fd4,,
,,,,,,0,318,318,145,1,X, , , , ,,2000,2,,001,2021-08-19_15h51.00,natb3,2021.2.3,MacIntel,83.33333333,60fd82be5a4ad41f00b77b18,611e07ecdcc96256ae8d5b80,611e6f981dae26d0a5977fd4,,
,,,,space,,0,319,319,219,1,Y, , , , ,space,2000,2,,001,2021-08-19_15h51.00,natb3,2021.2.3,MacIntel,83.33333333,60fd82be5a4ad41f00b77b18,611e07ecdcc96256ae8d5b80,611e6f981dae26d0a5977fd4,0.43,
,,,,space,,0,320,320,173,1,V, , , , ,space,1500,1.5,,001,2021-08-19_15h51.00,natb3,2021.2.3,MacIntel,83.33333333,60fd82be5a4ad41f00b77b18,611e07ecdcc96256ae8d5b80,611e6f981dae26d0a5977fd4,0.452,
,,,,space,,0,321,321,330,1,T, , , , ,space,2500,2.5,,001,2021-08-19_15h51.00,natb3,2021.2.3,MacIntel,83.33333333,60fd82be5a4ad41f00b77b18,611e07ecdcc96256ae8d5b80,611e6f981dae26d0a5977fd4,0.424,
,,,,,,0,322,322,69,1,X, , , , ,,1500,1.5,,001,2021-08-19_15h51.00,natb3,2021.2.3,MacIntel,83.33333333,60fd82be5a4ad41f00b77b18,611e07ecdcc96256ae8d5b80,611e6f981dae26d0a5977fd4,,
,,,,space,,0,323,323,154,1,I, , , , ,space,2500,2.5,,001,2021-08-19_15h51.00,natb3,2021.2.3,MacIntel,83.33333333,60fd82be5a4ad41f00b77b18,611e07ecdcc96256ae8d5b80,611e6f981dae26d0a5977fd4,0.357,
,,,,space,,0,324,324,256,1,Q, , , , ,space,2000,2,,001,2021-08-19_15h51.00,natb3,2021.2.3,MacIntel,83.33333333,60fd82be5a4ad41f00b77b18,611e07ecdcc96256ae8d5b80,611e6f981dae26d0a5977fd4,0.354,
,,,,space,,0,325,325,298,1,I, , , , ,space,2000,2,,001,2021-08-19_15h51.00,natb3,2021.2.3,MacIntel,83.33333333,60fd82be5a4ad41f00b77b18,611e07ecdcc96256ae8d5b80,611e6f981dae26d0a5977fd4,0.349,
,,,,space,,0,326,326,94,1,C, , , , ,space,2000,2,,001,2021-08-19_15h51.00,natb3,2021.2.3,MacIntel,83.33333333,60fd82be5a4ad41f00b77b18,611e07ecdcc96256ae8d5b80,611e6f981dae26d0a5977fd4,0.475,
,,,,space,,0,327,327,161,1,F, , , , ,space,1500,1.5,,001,2021-08-19_15h51.00,natb3,2021.2.3,MacIntel,83.33333333,60fd82be5a4ad41f00b77b18,611e07ecdcc96256ae8d5b80,611e6f981dae26d0a5977fd4,0.406,
,,,,space,,0,328,328,251,1,B, , , , ,space,1500,1.5,,001,2021-08-19_15h51.00,natb3,2021.2.3,MacIntel,83.33333333,60fd82be5a4ad41f00b77b18,611e07ecdcc96256ae8d5b80,611e6f981dae26d0a5977fd4,0.43,
,,,,space,,0,329,329,119,1,Y, , , , ,space,2500,2.5,,001,2021-08-19_15h51.00,natb3,2021.2.3,MacIntel,83.33333333,60fd82be5a4ad41f00b77b18,611e07ecdcc96256ae8d5b80,611e6f981dae26d0a5977fd4,0.299,
,,,,space,,0,330,330,304,1,S, , , , ,space,2000,2,,001,2021-08-19_15h51.00,natb3,2021.2.3,MacIntel,83.33333333,60fd82be5a4ad41f00b77b18,611e07ecdcc96256ae8d5b80,611e6f981dae26d0a5977fd4,0.367,
,,,,space,,0,331,331,134,1,J, , , , ,space,2000,2,,001,2021-08-19_15h51.00,natb3,2021.2.3,MacIntel,83.33333333,60fd82be5a4ad41f00b77b18,611e07ecdcc96256ae8d5b80,611e6f981dae26d0a5977fd4,0.365,
,,,,,,0,332,332,18,1,X, ,2,5,8,,2500,2.5,,001,2021-08-19_15h51.00,natb3,2021.2.3,MacIntel,83.33333333,60fd82be5a4ad41f00b77b18,611e07ecdcc96256ae8d5b80,611e6f981dae26d0a5977fd4,,
,,,,space,,0,333,333,217,1,T, , , , ,space,2500,2.5,,001,2021-08-19_15h51.00,natb3,2021.2.3,MacIntel,83.33333333,60fd82be5a4ad41f00b77b18,611e07ecdcc96256ae8d5b80,611e6f981dae26d0a5977fd4,0.353,
,,,,space,,0,334,334,245,1,K, , , , ,space,2000,2,,001,2021-08-19_15h51.00,natb3,2021.2.3,MacIntel,83.33333333,60fd82be5a4ad41f00b77b18,611e07ecdcc96256ae8d5b80,611e6f981dae26d0a5977fd4,0.314,
,,,,space,,0,335,335,242,1,H, , , , ,space,2500,2.5,,001,2021-08-19_15h51.00,natb3,2021.2.3,MacIntel,83.33333333,60fd82be5a4ad41f00b77b18,611e07ecdcc96256ae8d5b80,611e6f981dae26d0a5977fd4,0.339,
