key_resp_2.keys,key_resp_2.rt,key_resp_3.keys,key_resp_3.rt,key_resp.keys,key_resp.rt,key_resp_4.keys,trials.thisRepN,trials.thisTrialN,trials.thisN,trials.thisIndex,trials.ran,stimulus,distractor1,distractor2,distractor3,distractor4,CorrAns,isi_duration,isi_dur_in_seconds,participant,session,date,expName,psychopyVersion,OS,frameRate,PROLIFIC_PID,STUDY_ID,SESSION_ID,key_resp_4.rt
return,22.8131,space,16.4403,space,0.7734,,0,0,0,159,1,S, , , , ,space,2500,2.5,,001,2021-08-17_17h38.42.326,natb3,2021.2.3,Linux x86_64,60.12506013,61184fd3f123161339a9fc2f,6107d0959f7c4c3641818b95,611be4ed519389a4cb6d0215,
,,,,space,0.3794,,0,1,1,243,1,X, , , , ,,2500,2.5,,001,2021-08-17_17h38.42.326,natb3,2021.2.3,Linux x86_64,60.12506013,61184fd3f123161339a9fc2f,6107d0959f7c4c3641818b95,611be4ed519389a4cb6d0215,
,,,,space,0.7495,,0,2,2,250,1,V, , , , ,space,2000,2,,001,2021-08-17_17h38.42.326,natb3,2021.2.3,Linux x86_64,60.12506013,61184fd3f123161339a9fc2f,6107d0959f7c4c3641818b95,611be4ed519389a4cb6d0215,
,,,,space,0.6976,,0,3,3,253,1,N, , , , ,space,2500,2.5,,001,2021-08-17_17h38.42.326,natb3,2021.2.3,Linux x86_64,60.12506013,61184fd3f123161339a9fc2f,6107d0959f7c4c3641818b95,611be4ed519389a4cb6d0215,
,,,,,,,0,4,4,133,1,X, ,4, ,6,,2500,2.5,,001,2021-08-17_17h38.42.326,natb3,2021.2.3,Linux x86_64,60.12506013,61184fd3f123161339a9fc2f,6107d0959f7c4c3641818b95,611be4ed519389a4cb6d0215,
,,,,,,,0,5,5,311,1,X,1,2,7,3,,2500,2.5,,001,2021-08-17_17h38.42.326,natb3,2021.2.3,Linux x86_64,60.12506013,61184fd3f123161339a9fc2f,6107d0959f7c4c3641818b95,611be4ed519389a4cb6d0215,
,,,,space,0.412,,0,6,6,194,1,D, , , , ,space,2000,2,,001,2021-08-17_17h38.42.326,natb3,2021.2.3,Linux x86_64,60.12506013,61184fd3f123161339a9fc2f,6107d0959f7c4c3641818b95,611be4ed519389a4cb6d0215,
,,,,space,0.5033,,0,7,7,202,1,L, , , , ,space,2500,2.5,,001,2021-08-17_17h38.42.326,natb3,2021.2.3,Linux x86_64,60.12506013,61184fd3f123161339a9fc2f,6107d0959f7c4c3641818b95,611be4ed519389a4cb6d0215,
,,,,space,0.6502,,0,8,8,216,1,R, , , , ,space,1500,1.5,,001,2021-08-17_17h38.42.326,natb3,2021.2.3,Linux x86_64,60.12506013,61184fd3f123161339a9fc2f,6107d0959f7c4c3641818b95,611be4ed519389a4cb6d0215,
,,,,space,0.4271,,0,9,9,275,1,G, , , , ,space,1500,1.5,,001,2021-08-17_17h38.42.326,natb3,2021.2.3,Linux x86_64,60.12506013,61184fd3f123161339a9fc2f,6107d0959f7c4c3641818b95,611be4ed519389a4cb6d0215,
,,,,space,0.6826,,0,10,10,134,1,J, , , , ,space,2000,2,,001,2021-08-17_17h38.42.326,natb3,2021.2.3,Linux x86_64,60.12506013,61184fd3f123161339a9fc2f,6107d0959f7c4c3641818b95,611be4ed519389a4cb6d0215,
,,,,,,,0,11,11,168,1,X, , , , ,,2500,2.5,,001,2021-08-17_17h38.42.326,natb3,2021.2.3,Linux x86_64,60.12506013,61184fd3f123161339a9fc2f,6107d0959f7c4c3641818b95,611be4ed519389a4cb6d0215,
,,,,space,0.3766,,0,12,12,131,1,G, , , , ,space,1500,1.5,,001,2021-08-17_17h38.42.326,natb3,2021.2.3,Linux x86_64,60.12506013,61184fd3f123161339a9fc2f,6107d0959f7c4c3641818b95,611be4ed519389a4cb6d0215,
,,,,space,0.7811,,0,13,13,327,1,E, , , , ,space,1500,1.5,,001,2021-08-17_17h38.42.326,natb3,2021.2.3,Linux x86_64,60.12506013,61184fd3f123161339a9fc2f,6107d0959f7c4c3641818b95,611be4ed519389a4cb6d0215,
,,,,space,0.6482,,0,14,14,204,1,Z, , , , ,space,2000,2,,001,2021-08-17_17h38.42.326,natb3,2021.2.3,Linux x86_64,60.12506013,61184fd3f123161339a9fc2f,6107d0959f7c4c3641818b95,611be4ed519389a4cb6d0215,
,,,,space,0.4993,,0,15,15,298,1,I, , , , ,space,2000,2,,001,2021-08-17_17h38.42.326,natb3,2021.2.3,Linux x86_64,60.12506013,61184fd3f123161339a9fc2f,6107d0959f7c4c3641818b95,611be4ed519389a4cb6d0215,
,,,,space,0.5313,,0,16,16,115,1,R, , , , ,space,1500,1.5,,001,2021-08-17_17h38.42.326,natb3,2021.2.3,Linux x86_64,60.12506013,61184fd3f123161339a9fc2f,6107d0959f7c4c3641818b95,611be4ed519389a4cb6d0215,
,,,,,,,0,17,17,148,1,X, , , , ,,2000,2,,001,2021-08-17_17h38.42.326,natb3,2021.2.3,Linux x86_64,60.12506013,61184fd3f123161339a9fc2f,6107d0959f7c4c3641818b95,611be4ed519389a4cb6d0215,
,,,,space,0.3104,,0,18,18,64,1,N, , , , ,space,2000,2,,001,2021-08-17_17h38.42.326,natb3,2021.2.3,Linux x86_64,60.12506013,61184fd3f123161339a9fc2f,6107d0959f7c4c3641818b95,611be4ed519389a4cb6d0215,
,,,,,,,0,19,19,129,1,X,2,3,5, ,,1500,1.5,,001,2021-08-17_17h38.42.326,natb3,2021.2.3,Linux x86_64,60.12506013,61184fd3f123161339a9fc2f,6107d0959f7c4c3641818b95,611be4ed519389a4cb6d0215,
,,,,space,0.5797,,0,20,20,120,1,U, , , , ,space,1500,1.5,,001,2021-08-17_17h38.42.326,natb3,2021.2.3,Linux x86_64,60.12506013,61184fd3f123161339a9fc2f,6107d0959f7c4c3641818b95,611be4ed519389a4cb6d0215,
,,,,space,0.4267,,0,21,21,201,1,K, , , , ,space,1500,1.5,,001,2021-08-17_17h38.42.326,natb3,2021.2.3,Linux x86_64,60.12506013,61184fd3f123161339a9fc2f,6107d0959f7c4c3641818b95,611be4ed519389a4cb6d0215,
,,,,,,,0,22,22,43,1,X, ,6, ,2,,2500,2.5,,001,2021-08-17_17h38.42.326,natb3,2021.2.3,Linux x86_64,60.12506013,61184fd3f123161339a9fc2f,6107d0959f7c4c3641818b95,611be4ed519389a4cb6d0215,
,,,,space,0.4115,,0,23,23,303,1,A, , , , ,space,2000,2,,001,2021-08-17_17h38.42.326,natb3,2021.2.3,Linux x86_64,60.12506013,61184fd3f123161339a9fc2f,6107d0959f7c4c3641818b95,611be4ed519389a4cb6d0215,
,,,,,,,0,24,24,125,1,X, , , , ,,2000,2,,001,2021-08-17_17h38.42.326,natb3,2021.2.3,Linux x86_64,60.12506013,61184fd3f123161339a9fc2f,6107d0959f7c4c3641818b95,611be4ed519389a4cb6d0215,
,,,,,,,0,25,25,175,1,X,7, ,4,2,,1500,1.5,,001,2021-08-17_17h38.42.326,natb3,2021.2.3,Linux x86_64,60.12506013,61184fd3f123161339a9fc2f,6107d0959f7c4c3641818b95,611be4ed519389a4cb6d0215,
,,,,space,0.424,,0,26,26,176,1,N, , , , ,space,1500,1.5,,001,2021-08-17_17h38.42.326,natb3,2021.2.3,Linux x86_64,60.12506013,61184fd3f123161339a9fc2f,6107d0959f7c4c3641818b95,611be4ed519389a4cb6d0215,
,,,,space,0.4645,,0,27,27,185,1,Y, , , , ,space,2500,2.5,,001,2021-08-17_17h38.42.326,natb3,2021.2.3,Linux x86_64,60.12506013,61184fd3f123161339a9fc2f,6107d0959f7c4c3641818b95,611be4ed519389a4cb6d0215,
,,,,space,0.4456,,0,28,28,266,1,O, , , , ,space,1500,1.5,,001,2021-08-17_17h38.42.326,natb3,2021.2.3,Linux x86_64,60.12506013,61184fd3f123161339a9fc2f,6107d0959f7c4c3641818b95,611be4ed519389a4cb6d0215,
,,,,space,0.3996,,0,29,29,332,1,U, , , , ,space,2000,2,,001,2021-08-17_17h38.42.326,natb3,2021.2.3,Linux x86_64,60.12506013,61184fd3f123161339a9fc2f,6107d0959f7c4c3641818b95,611be4ed519389a4cb6d0215,
,,,,space,0.3438,,0,30,30,41,1,Y, , , , ,space,2500,2.5,,001,2021-08-17_17h38.42.326,natb3,2021.2.3,Linux x86_64,60.12506013,61184fd3f123161339a9fc2f,6107d0959f7c4c3641818b95,611be4ed519389a4cb6d0215,
,,,,space,0.4185,,0,31,31,290,1,W, , , , ,space,1500,1.5,,001,2021-08-17_17h38.42.326,natb3,2021.2.3,Linux x86_64,60.12506013,61184fd3f123161339a9fc2f,6107d0959f7c4c3641818b95,611be4ed519389a4cb6d0215,
,,,,space,0.4513,,0,32,32,287,1,X, ,2, ,9,,2000,2,,001,2021-08-17_17h38.42.326,natb3,2021.2.3,Linux x86_64,60.12506013,61184fd3f123161339a9fc2f,6107d0959f7c4c3641818b95,611be4ed519389a4cb6d0215,
,,,,space,0.861,,0,33,33,335,1,P,,,,,space,1500,1.5,,001,2021-08-17_17h38.42.326,natb3,2021.2.3,Linux x86_64,60.12506013,61184fd3f123161339a9fc2f,6107d0959f7c4c3641818b95,611be4ed519389a4cb6d0215,
,,,,space,0.6863,,0,34,34,237,1,S, , , , ,space,1500,1.5,,001,2021-08-17_17h38.42.326,natb3,2021.2.3,Linux x86_64,60.12506013,61184fd3f123161339a9fc2f,6107d0959f7c4c3641818b95,611be4ed519389a4cb6d0215,
,,,,space,0.3798,,0,35,35,11,1,P, , , , ,space,2500,2.5,,001,2021-08-17_17h38.42.326,natb3,2021.2.3,Linux x86_64,60.12506013,61184fd3f123161339a9fc2f,6107d0959f7c4c3641818b95,611be4ed519389a4cb6d0215,
,,,,space,0.5009,,0,36,36,13,1,A, , , , ,space,2000,2,,001,2021-08-17_17h38.42.326,natb3,2021.2.3,Linux x86_64,60.12506013,61184fd3f123161339a9fc2f,6107d0959f7c4c3641818b95,611be4ed519389a4cb6d0215,
,,,,,,,0,37,37,102,1,X, ,6, , ,,1500,1.5,,001,2021-08-17_17h38.42.326,natb3,2021.2.3,Linux x86_64,60.12506013,61184fd3f123161339a9fc2f,6107d0959f7c4c3641818b95,611be4ed519389a4cb6d0215,
,,,,space,0.3635,,0,38,38,314,1,L, , , , ,space,1500,1.5,,001,2021-08-17_17h38.42.326,natb3,2021.2.3,Linux x86_64,60.12506013,61184fd3f123161339a9fc2f,6107d0959f7c4c3641818b95,611be4ed519389a4cb6d0215,
,,,,space,0.3826,,0,39,39,71,1,R, , , , ,space,2500,2.5,,001,2021-08-17_17h38.42.326,natb3,2021.2.3,Linux x86_64,60.12506013,61184fd3f123161339a9fc2f,6107d0959f7c4c3641818b95,611be4ed519389a4cb6d0215,
,,,,,,,0,40,40,141,1,X,1, ,4,6,,1500,1.5,,001,2021-08-17_17h38.42.326,natb3,2021.2.3,Linux x86_64,60.12506013,61184fd3f123161339a9fc2f,6107d0959f7c4c3641818b95,611be4ed519389a4cb6d0215,
,,,,space,0.4857,,0,41,41,246,1,L, , , , ,space,2500,2.5,,001,2021-08-17_17h38.42.326,natb3,2021.2.3,Linux x86_64,60.12506013,61184fd3f123161339a9fc2f,6107d0959f7c4c3641818b95,611be4ed519389a4cb6d0215,
,,,,space,0.4665,,0,42,42,195,1,X, , , , ,,1500,1.5,,001,2021-08-17_17h38.42.326,natb3,2021.2.3,Linux x86_64,60.12506013,61184fd3f123161339a9fc2f,6107d0959f7c4c3641818b95,611be4ed519389a4cb6d0215,
,,,,space,0.4485,,0,43,43,6,1,Y, , , , ,space,2500,2.5,,001,2021-08-17_17h38.42.326,natb3,2021.2.3,Linux x86_64,60.12506013,61184fd3f123161339a9fc2f,6107d0959f7c4c3641818b95,611be4ed519389a4cb6d0215,
,,,,space,0.4496,,0,44,44,257,1,W, , , , ,space,2000,2,,001,2021-08-17_17h38.42.326,natb3,2021.2.3,Linux x86_64,60.12506013,61184fd3f123161339a9fc2f,6107d0959f7c4c3641818b95,611be4ed519389a4cb6d0215,
,,,,space,0.5989,,0,45,45,137,1,C, , , , ,space,2500,2.5,,001,2021-08-17_17h38.42.326,natb3,2021.2.3,Linux x86_64,60.12506013,61184fd3f123161339a9fc2f,6107d0959f7c4c3641818b95,611be4ed519389a4cb6d0215,
,,,,,,,0,46,46,51,1,X,7,5,8, ,,1500,1.5,,001,2021-08-17_17h38.42.326,natb3,2021.2.3,Linux x86_64,60.12506013,61184fd3f123161339a9fc2f,6107d0959f7c4c3641818b95,611be4ed519389a4cb6d0215,
,,,,space,0.522,,0,47,47,117,1,T, , , , ,space,2500,2.5,,001,2021-08-17_17h38.42.326,natb3,2021.2.3,Linux x86_64,60.12506013,61184fd3f123161339a9fc2f,6107d0959f7c4c3641818b95,611be4ed519389a4cb6d0215,
,,,,space,0.4132,,0,48,48,215,1,E, , , , ,space,2500,2.5,,001,2021-08-17_17h38.42.326,natb3,2021.2.3,Linux x86_64,60.12506013,61184fd3f123161339a9fc2f,6107d0959f7c4c3641818b95,611be4ed519389a4cb6d0215,
,,,,,,,0,49,49,23,1,X,1, ,5, ,,2000,2,,001,2021-08-17_17h38.42.326,natb3,2021.2.3,Linux x86_64,60.12506013,61184fd3f123161339a9fc2f,6107d0959f7c4c3641818b95,611be4ed519389a4cb6d0215,
,,,,space,0.5216,,0,50,50,235,1,A, , , , ,space,1500,1.5,,001,2021-08-17_17h38.42.326,natb3,2021.2.3,Linux x86_64,60.12506013,61184fd3f123161339a9fc2f,6107d0959f7c4c3641818b95,611be4ed519389a4cb6d0215,
,,,,space,0.5163,,0,51,51,139,1,V, , , , ,space,2000,2,,001,2021-08-17_17h38.42.326,natb3,2021.2.3,Linux x86_64,60.12506013,61184fd3f123161339a9fc2f,6107d0959f7c4c3641818b95,611be4ed519389a4cb6d0215,
,,,,space,0.4313,,0,52,52,193,1,S, , , , ,space,2500,2.5,,001,2021-08-17_17h38.42.326,natb3,2021.2.3,Linux x86_64,60.12506013,61184fd3f123161339a9fc2f,6107d0959f7c4c3641818b95,611be4ed519389a4cb6d0215,
,,,,space,0.4688,,0,53,53,87,1,H, , , , ,space,1500,1.5,,001,2021-08-17_17h38.42.326,natb3,2021.2.3,Linux x86_64,60.12506013,61184fd3f123161339a9fc2f,6107d0959f7c4c3641818b95,611be4ed519389a4cb6d0215,
,,,,space,0.4822,,0,54,54,196,1,F, , , , ,space,1500,1.5,,001,2021-08-17_17h38.42.326,natb3,2021.2.3,Linux x86_64,60.12506013,61184fd3f123161339a9fc2f,6107d0959f7c4c3641818b95,611be4ed519389a4cb6d0215,
,,,,space,0.4785,,0,55,55,157,1,A, , , , ,space,2500,2.5,,001,2021-08-17_17h38.42.326,natb3,2021.2.3,Linux x86_64,60.12506013,61184fd3f123161339a9fc2f,6107d0959f7c4c3641818b95,611be4ed519389a4cb6d0215,
,,,,,,,0,56,56,200,1,X,7, ,5,3,,1500,1.5,,001,2021-08-17_17h38.42.326,natb3,2021.2.3,Linux x86_64,60.12506013,61184fd3f123161339a9fc2f,6107d0959f7c4c3641818b95,611be4ed519389a4cb6d0215,
,,,,space,0.4338,,0,57,57,10,1,O, , , , ,space,2000,2,,001,2021-08-17_17h38.42.326,natb3,2021.2.3,Linux x86_64,60.12506013,61184fd3f123161339a9fc2f,6107d0959f7c4c3641818b95,611be4ed519389a4cb6d0215,
,,,,,,,0,58,58,263,1,X,4, ,6, ,,1500,1.5,,001,2021-08-17_17h38.42.326,natb3,2021.2.3,Linux x86_64,60.12506013,61184fd3f123161339a9fc2f,6107d0959f7c4c3641818b95,611be4ed519389a4cb6d0215,
,,,,space,0.4258,,0,59,59,331,1,Y, , , , ,space,2500,2.5,,001,2021-08-17_17h38.42.326,natb3,2021.2.3,Linux x86_64,60.12506013,61184fd3f123161339a9fc2f,6107d0959f7c4c3641818b95,611be4ed519389a4cb6d0215,
,,,,,,,0,60,60,39,1,X,6,2, , ,,1500,1.5,,001,2021-08-17_17h38.42.326,natb3,2021.2.3,Linux x86_64,60.12506013,61184fd3f123161339a9fc2f,6107d0959f7c4c3641818b95,611be4ed519389a4cb6d0215,
,,,,space,0.3604,,0,61,61,61,1,C, , , , ,space,2000,2,,001,2021-08-17_17h38.42.326,natb3,2021.2.3,Linux x86_64,60.12506013,61184fd3f123161339a9fc2f,6107d0959f7c4c3641818b95,611be4ed519389a4cb6d0215,
,,,,space,0.418,,0,62,62,242,1,H, , , , ,space,2500,2.5,,001,2021-08-17_17h38.42.326,natb3,2021.2.3,Linux x86_64,60.12506013,61184fd3f123161339a9fc2f,6107d0959f7c4c3641818b95,611be4ed519389a4cb6d0215,
,,,,,,,0,63,63,145,1,X, , , , ,,2000,2,,001,2021-08-17_17h38.42.326,natb3,2021.2.3,Linux x86_64,60.12506013,61184fd3f123161339a9fc2f,6107d0959f7c4c3641818b95,611be4ed519389a4cb6d0215,
,,,,space,0.3777,,0,64,64,70,1,E, , , , ,space,2500,2.5,,001,2021-08-17_17h38.42.326,natb3,2021.2.3,Linux x86_64,60.12506013,61184fd3f123161339a9fc2f,6107d0959f7c4c3641818b95,611be4ed519389a4cb6d0215,
,,,,space,0.5571,,0,65,65,100,1,M, , , , ,space,2000,2,,001,2021-08-17_17h38.42.326,natb3,2021.2.3,Linux x86_64,60.12506013,61184fd3f123161339a9fc2f,6107d0959f7c4c3641818b95,611be4ed519389a4cb6d0215,
,,,,space,0.4935,,0,66,66,1,1,W, , , , ,space,2000,2,,001,2021-08-17_17h38.42.326,natb3,2021.2.3,Linux x86_64,60.12506013,61184fd3f123161339a9fc2f,6107d0959f7c4c3641818b95,611be4ed519389a4cb6d0215,
,,,,space,0.681,,0,67,67,281,1,Z, , , , ,space,1500,1.5,,001,2021-08-17_17h38.42.326,natb3,2021.2.3,Linux x86_64,60.12506013,61184fd3f123161339a9fc2f,6107d0959f7c4c3641818b95,611be4ed519389a4cb6d0215,
,,,,,,,0,68,68,98,1,X, , , , ,,2500,2.5,,001,2021-08-17_17h38.42.326,natb3,2021.2.3,Linux x86_64,60.12506013,61184fd3f123161339a9fc2f,6107d0959f7c4c3641818b95,611be4ed519389a4cb6d0215,
,,,,space,0.4157,,0,69,69,261,1,T, , , , ,space,2000,2,,001,2021-08-17_17h38.42.326,natb3,2021.2.3,Linux x86_64,60.12506013,61184fd3f123161339a9fc2f,6107d0959f7c4c3641818b95,611be4ed519389a4cb6d0215,
,,,,space,0.484,,0,70,70,174,1,B, , , , ,space,2500,2.5,,001,2021-08-17_17h38.42.326,natb3,2021.2.3,Linux x86_64,60.12506013,61184fd3f123161339a9fc2f,6107d0959f7c4c3641818b95,611be4ed519389a4cb6d0215,
,,,,space,0.446,,0,71,71,77,1,O, , , , ,space,2000,2,,001,2021-08-17_17h38.42.326,natb3,2021.2.3,Linux x86_64,60.12506013,61184fd3f123161339a9fc2f,6107d0959f7c4c3641818b95,611be4ed519389a4cb6d0215,
,,,,space,0.3985,,0,72,72,269,1,A, , , , ,space,2500,2.5,,001,2021-08-17_17h38.42.326,natb3,2021.2.3,Linux x86_64,60.12506013,61184fd3f123161339a9fc2f,6107d0959f7c4c3641818b95,611be4ed519389a4cb6d0215,
,,,,space,0.4109,,0,73,73,34,1,Q, , , , ,space,2500,2.5,,001,2021-08-17_17h38.42.326,natb3,2021.2.3,Linux x86_64,60.12506013,61184fd3f123161339a9fc2f,6107d0959f7c4c3641818b95,611be4ed519389a4cb6d0215,
,,,,space,0.4141,,0,74,74,128,1,D, , , , ,space,2500,2.5,,001,2021-08-17_17h38.42.326,natb3,2021.2.3,Linux x86_64,60.12506013,61184fd3f123161339a9fc2f,6107d0959f7c4c3641818b95,611be4ed519389a4cb6d0215,
,,,,space,0.466,,0,75,75,123,1,O, , , , ,space,1500,1.5,,001,2021-08-17_17h38.42.326,natb3,2021.2.3,Linux x86_64,60.12506013,61184fd3f123161339a9fc2f,6107d0959f7c4c3641818b95,611be4ed519389a4cb6d0215,
,,,,space,0.5322,,0,76,76,247,1,Z, , , , ,space,1500,1.5,,001,2021-08-17_17h38.42.326,natb3,2021.2.3,Linux x86_64,60.12506013,61184fd3f123161339a9fc2f,6107d0959f7c4c3641818b95,611be4ed519389a4cb6d0215,
,,,,space,0.553,,0,77,77,221,1,I, , , , ,space,2500,2.5,,001,2021-08-17_17h38.42.326,natb3,2021.2.3,Linux x86_64,60.12506013,61184fd3f123161339a9fc2f,6107d0959f7c4c3641818b95,611be4ed519389a4cb6d0215,
,,,,space,0.3756,,0,78,78,59,1,Z, , , , ,space,2000,2,,001,2021-08-17_17h38.42.326,natb3,2021.2.3,Linux x86_64,60.12506013,61184fd3f123161339a9fc2f,6107d0959f7c4c3641818b95,611be4ed519389a4cb6d0215,
,,,,space,0.4329,,0,79,79,67,1,Q, , , , ,space,2000,2,,001,2021-08-17_17h38.42.326,natb3,2021.2.3,Linux x86_64,60.12506013,61184fd3f123161339a9fc2f,6107d0959f7c4c3641818b95,611be4ed519389a4cb6d0215,
,,,,space,0.4155,,0,80,80,296,1,Y, , , , ,space,2500,2.5,,001,2021-08-17_17h38.42.326,natb3,2021.2.3,Linux x86_64,60.12506013,61184fd3f123161339a9fc2f,6107d0959f7c4c3641818b95,611be4ed519389a4cb6d0215,
,,,,,,,0,81,81,191,1,X,1, ,3,4,,2500,2.5,,001,2021-08-17_17h38.42.326,natb3,2021.2.3,Linux x86_64,60.12506013,61184fd3f123161339a9fc2f,6107d0959f7c4c3641818b95,611be4ed519389a4cb6d0215,
,,,,space,0.4597,,0,82,82,90,1,K, , , , ,space,2000,2,,001,2021-08-17_17h38.42.326,natb3,2021.2.3,Linux x86_64,60.12506013,61184fd3f123161339a9fc2f,6107d0959f7c4c3641818b95,611be4ed519389a4cb6d0215,
,,,,space,0.4842,,0,83,83,109,1,U, , , , ,space,1500,1.5,,001,2021-08-17_17h38.42.326,natb3,2021.2.3,Linux x86_64,60.12506013,61184fd3f123161339a9fc2f,6107d0959f7c4c3641818b95,611be4ed519389a4cb6d0215,
,,,,,,,0,84,84,179,1,X, ,9, ,2,,1500,1.5,,001,2021-08-17_17h38.42.326,natb3,2021.2.3,Linux x86_64,60.12506013,61184fd3f123161339a9fc2f,6107d0959f7c4c3641818b95,611be4ed519389a4cb6d0215,
,,,,space,0.4041,,0,85,85,227,1,T, , , , ,space,1500,1.5,,001,2021-08-17_17h38.42.326,natb3,2021.2.3,Linux x86_64,60.12506013,61184fd3f123161339a9fc2f,6107d0959f7c4c3641818b95,611be4ed519389a4cb6d0215,
,,,,space,0.5014,,0,86,86,50,1,D, , , , ,space,1500,1.5,,001,2021-08-17_17h38.42.326,natb3,2021.2.3,Linux x86_64,60.12506013,61184fd3f123161339a9fc2f,6107d0959f7c4c3641818b95,611be4ed519389a4cb6d0215,
,,,,space,0.5465,,0,87,87,219,1,Y, , , , ,space,2000,2,,001,2021-08-17_17h38.42.326,natb3,2021.2.3,Linux x86_64,60.12506013,61184fd3f123161339a9fc2f,6107d0959f7c4c3641818b95,611be4ed519389a4cb6d0215,
,,,,space,0.7477,,0,88,88,161,1,F, , , , ,space,1500,1.5,,001,2021-08-17_17h38.42.326,natb3,2021.2.3,Linux x86_64,60.12506013,61184fd3f123161339a9fc2f,6107d0959f7c4c3641818b95,611be4ed519389a4cb6d0215,
,,,,space,0.3714,,0,89,89,75,1,U, , , , ,space,1500,1.5,,001,2021-08-17_17h38.42.326,natb3,2021.2.3,Linux x86_64,60.12506013,61184fd3f123161339a9fc2f,6107d0959f7c4c3641818b95,611be4ed519389a4cb6d0215,
,,,,space,0.4811,,0,90,90,222,1,O, , , , ,space,2000,2,,001,2021-08-17_17h38.42.326,natb3,2021.2.3,Linux x86_64,60.12506013,61184fd3f123161339a9fc2f,6107d0959f7c4c3641818b95,611be4ed519389a4cb6d0215,
,,,,space,0.415,,0,91,91,30,1,N, , , , ,space,2500,2.5,,001,2021-08-17_17h38.42.326,natb3,2021.2.3,Linux x86_64,60.12506013,61184fd3f123161339a9fc2f,6107d0959f7c4c3641818b95,611be4ed519389a4cb6d0215,
,,,,,,,0,92,92,322,1,X, , ,1,6,,2000,2,,001,2021-08-17_17h38.42.326,natb3,2021.2.3,Linux x86_64,60.12506013,61184fd3f123161339a9fc2f,6107d0959f7c4c3641818b95,611be4ed519389a4cb6d0215,
,,,,space,0.4555,,0,93,93,37,1,E, , , , ,space,2500,2.5,,001,2021-08-17_17h38.42.326,natb3,2021.2.3,Linux x86_64,60.12506013,61184fd3f123161339a9fc2f,6107d0959f7c4c3641818b95,611be4ed519389a4cb6d0215,
,,,,space,0.8508,,0,94,94,334,1,O, , , , ,space,1500,1.5,,001,2021-08-17_17h38.42.326,natb3,2021.2.3,Linux x86_64,60.12506013,61184fd3f123161339a9fc2f,6107d0959f7c4c3641818b95,611be4ed519389a4cb6d0215,
,,,,space,0.5533,,0,95,95,105,1,R, , , , ,space,2500,2.5,,001,2021-08-17_17h38.42.326,natb3,2021.2.3,Linux x86_64,60.12506013,61184fd3f123161339a9fc2f,6107d0959f7c4c3641818b95,611be4ed519389a4cb6d0215,
,,,,space,0.496,,0,96,96,232,1,O, , , , ,space,2500,2.5,,001,2021-08-17_17h38.42.326,natb3,2021.2.3,Linux x86_64,60.12506013,61184fd3f123161339a9fc2f,6107d0959f7c4c3641818b95,611be4ed519389a4cb6d0215,
,,,,space,0.4489,,0,97,97,183,1,R, , , , ,space,1500,1.5,,001,2021-08-17_17h38.42.326,natb3,2021.2.3,Linux x86_64,60.12506013,61184fd3f123161339a9fc2f,6107d0959f7c4c3641818b95,611be4ed519389a4cb6d0215,
,,,,space,0.5211,,0,98,98,276,1,H, , , , ,space,2000,2,,001,2021-08-17_17h38.42.326,natb3,2021.2.3,Linux x86_64,60.12506013,61184fd3f123161339a9fc2f,6107d0959f7c4c3641818b95,611be4ed519389a4cb6d0215,
,,,,space,0.3483,,0,99,99,291,1,X, , , , ,,2000,2,,001,2021-08-17_17h38.42.326,natb3,2021.2.3,Linux x86_64,60.12506013,61184fd3f123161339a9fc2f,6107d0959f7c4c3641818b95,611be4ed519389a4cb6d0215,
,,,,,,,0,100,100,153,1,X,4,7, ,6,,2000,2,,001,2021-08-17_17h38.42.326,natb3,2021.2.3,Linux x86_64,60.12506013,61184fd3f123161339a9fc2f,6107d0959f7c4c3641818b95,611be4ed519389a4cb6d0215,
,,,,space,0.5081,,0,101,101,280,1,L, , , , ,space,1500,1.5,,001,2021-08-17_17h38.42.326,natb3,2021.2.3,Linux x86_64,60.12506013,61184fd3f123161339a9fc2f,6107d0959f7c4c3641818b95,611be4ed519389a4cb6d0215,
,,,,,,,0,102,102,35,1,X, , , , ,,2500,2.5,,001,2021-08-17_17h38.42.326,natb3,2021.2.3,Linux x86_64,60.12506013,61184fd3f123161339a9fc2f,6107d0959f7c4c3641818b95,611be4ed519389a4cb6d0215,
,,,,,,,0,103,103,166,1,X, , , , ,,2000,2,,001,2021-08-17_17h38.42.326,natb3,2021.2.3,Linux x86_64,60.12506013,61184fd3f123161339a9fc2f,6107d0959f7c4c3641818b95,611be4ed519389a4cb6d0215,
,,,,space,0.4651,,0,104,104,103,1,W, , , , ,space,2000,2,,001,2021-08-17_17h38.42.326,natb3,2021.2.3,Linux x86_64,60.12506013,61184fd3f123161339a9fc2f,6107d0959f7c4c3641818b95,611be4ed519389a4cb6d0215,
,,,,space,0.5611,,0,105,105,52,1,F, , , , ,space,1500,1.5,,001,2021-08-17_17h38.42.326,natb3,2021.2.3,Linux x86_64,60.12506013,61184fd3f123161339a9fc2f,6107d0959f7c4c3641818b95,611be4ed519389a4cb6d0215,
,,,,space,0.5127,,0,106,106,112,1,Q, , , , ,space,2500,2.5,,001,2021-08-17_17h38.42.326,natb3,2021.2.3,Linux x86_64,60.12506013,61184fd3f123161339a9fc2f,6107d0959f7c4c3641818b95,611be4ed519389a4cb6d0215,
,,,,,,,0,107,107,12,1,X, , , , ,,1500,1.5,,001,2021-08-17_17h38.42.326,natb3,2021.2.3,Linux x86_64,60.12506013,61184fd3f123161339a9fc2f,6107d0959f7c4c3641818b95,611be4ed519389a4cb6d0215,
,,,,space,0.3702,,0,108,108,140,1,B, , , , ,space,2500,2.5,,001,2021-08-17_17h38.42.326,natb3,2021.2.3,Linux x86_64,60.12506013,61184fd3f123161339a9fc2f,6107d0959f7c4c3641818b95,611be4ed519389a4cb6d0215,
,,,,space,0.3782,,0,109,109,155,1,O, , , , ,space,1500,1.5,,001,2021-08-17_17h38.42.326,natb3,2021.2.3,Linux x86_64,60.12506013,61184fd3f123161339a9fc2f,6107d0959f7c4c3641818b95,611be4ed519389a4cb6d0215,
,,,,space,0.5501,,0,110,110,86,1,G, , , , ,space,2000,2,,001,2021-08-17_17h38.42.326,natb3,2021.2.3,Linux x86_64,60.12506013,61184fd3f123161339a9fc2f,6107d0959f7c4c3641818b95,611be4ed519389a4cb6d0215,
,,,,space,0.4659,,0,111,111,156,1,P, , , , ,space,1500,1.5,,001,2021-08-17_17h38.42.326,natb3,2021.2.3,Linux x86_64,60.12506013,61184fd3f123161339a9fc2f,6107d0959f7c4c3641818b95,611be4ed519389a4cb6d0215,
,,,,space,0.7482,,0,112,112,3,1,R, , , , ,space,2000,2,,001,2021-08-17_17h38.42.326,natb3,2021.2.3,Linux x86_64,60.12506013,61184fd3f123161339a9fc2f,6107d0959f7c4c3641818b95,611be4ed519389a4cb6d0215,
,,,,space,0.3995,,0,113,113,164,1,H, , , , ,space,2500,2.5,,001,2021-08-17_17h38.42.326,natb3,2021.2.3,Linux x86_64,60.12506013,61184fd3f123161339a9fc2f,6107d0959f7c4c3641818b95,611be4ed519389a4cb6d0215,
,,,,space,0.4511,,0,114,114,177,1,M, , , , ,space,2500,2.5,,001,2021-08-17_17h38.42.326,natb3,2021.2.3,Linux x86_64,60.12506013,61184fd3f123161339a9fc2f,6107d0959f7c4c3641818b95,611be4ed519389a4cb6d0215,
,,,,space,0.7991,,0,115,115,80,1,A, , , , ,space,2000,2,,001,2021-08-17_17h38.42.326,natb3,2021.2.3,Linux x86_64,60.12506013,61184fd3f123161339a9fc2f,6107d0959f7c4c3641818b95,611be4ed519389a4cb6d0215,
,,,,,,,0,116,116,15,1,X, , , , ,,1500,1.5,,001,2021-08-17_17h38.42.326,natb3,2021.2.3,Linux x86_64,60.12506013,61184fd3f123161339a9fc2f,6107d0959f7c4c3641818b95,611be4ed519389a4cb6d0215,
,,,,space,0.5455,,0,117,117,274,1,F, , , , ,space,2000,2,,001,2021-08-17_17h38.42.326,natb3,2021.2.3,Linux x86_64,60.12506013,61184fd3f123161339a9fc2f,6107d0959f7c4c3641818b95,611be4ed519389a4cb6d0215,
,,,,space,0.4447,,0,118,118,289,1,Q, , , , ,space,2000,2,,001,2021-08-17_17h38.42.326,natb3,2021.2.3,Linux x86_64,60.12506013,61184fd3f123161339a9fc2f,6107d0959f7c4c3641818b95,611be4ed519389a4cb6d0215,
,,,,space,0.4648,,0,119,119,113,1,W, , , , ,space,2500,2.5,,001,2021-08-17_17h38.42.326,natb3,2021.2.3,Linux x86_64,60.12506013,61184fd3f123161339a9fc2f,6107d0959f7c4c3641818b95,611be4ed519389a4cb6d0215,
,,,,space,0.4118,,0,120,120,57,1,K, , , , ,space,2500,2.5,,001,2021-08-17_17h38.42.326,natb3,2021.2.3,Linux x86_64,60.12506013,61184fd3f123161339a9fc2f,6107d0959f7c4c3641818b95,611be4ed519389a4cb6d0215,
,,,,space,0.3651,,0,121,121,108,1,Y, , , , ,space,2500,2.5,,001,2021-08-17_17h38.42.326,natb3,2021.2.3,Linux x86_64,60.12506013,61184fd3f123161339a9fc2f,6107d0959f7c4c3641818b95,611be4ed519389a4cb6d0215,
,,,,space,0.3958,,0,122,122,224,1,W, , , , ,space,1500,1.5,,001,2021-08-17_17h38.42.326,natb3,2021.2.3,Linux x86_64,60.12506013,61184fd3f123161339a9fc2f,6107d0959f7c4c3641818b95,611be4ed519389a4cb6d0215,
,,,,space,0.5033,,0,123,123,326,1,W, , , , ,space,2000,2,,001,2021-08-17_17h38.42.326,natb3,2021.2.3,Linux x86_64,60.12506013,61184fd3f123161339a9fc2f,6107d0959f7c4c3641818b95,611be4ed519389a4cb6d0215,
,,,,space,0.5343,,0,124,124,173,1,V, , , , ,space,1500,1.5,,001,2021-08-17_17h38.42.326,natb3,2021.2.3,Linux x86_64,60.12506013,61184fd3f123161339a9fc2f,6107d0959f7c4c3641818b95,611be4ed519389a4cb6d0215,
,,,,space,0.6169,,0,125,125,301,1,P, , , , ,space,1500,1.5,,001,2021-08-17_17h38.42.326,natb3,2021.2.3,Linux x86_64,60.12506013,61184fd3f123161339a9fc2f,6107d0959f7c4c3641818b95,611be4ed519389a4cb6d0215,
,,,,,,,0,126,126,207,1,X,9, ,2, ,,2500,2.5,,001,2021-08-17_17h38.42.326,natb3,2021.2.3,Linux x86_64,60.12506013,61184fd3f123161339a9fc2f,6107d0959f7c4c3641818b95,611be4ed519389a4cb6d0215,
,,,,space,0.4995,,0,127,127,254,1,M, , , , ,space,1500,1.5,,001,2021-08-17_17h38.42.326,natb3,2021.2.3,Linux x86_64,60.12506013,61184fd3f123161339a9fc2f,6107d0959f7c4c3641818b95,611be4ed519389a4cb6d0215,
,,,,,,,0,128,128,236,1,X,3, ,4,7,,2500,2.5,,001,2021-08-17_17h38.42.326,natb3,2021.2.3,Linux x86_64,60.12506013,61184fd3f123161339a9fc2f,6107d0959f7c4c3641818b95,611be4ed519389a4cb6d0215,
,,,,space,0.5857,,0,129,129,206,1,V, , , , ,space,2000,2,,001,2021-08-17_17h38.42.326,natb3,2021.2.3,Linux x86_64,60.12506013,61184fd3f123161339a9fc2f,6107d0959f7c4c3641818b95,611be4ed519389a4cb6d0215,
,,,,,,,0,130,130,218,1,X,1,3, ,8,,1500,1.5,,001,2021-08-17_17h38.42.326,natb3,2021.2.3,Linux x86_64,60.12506013,61184fd3f123161339a9fc2f,6107d0959f7c4c3641818b95,611be4ed519389a4cb6d0215,
,,,,space,0.5572,,0,131,131,104,1,E, , , , ,space,2000,2,,001,2021-08-17_17h38.42.326,natb3,2021.2.3,Linux x86_64,60.12506013,61184fd3f123161339a9fc2f,6107d0959f7c4c3641818b95,611be4ed519389a4cb6d0215,
,,,,,,,0,132,132,277,1,X,8,5, ,2,,2000,2,,001,2021-08-17_17h38.42.326,natb3,2021.2.3,Linux x86_64,60.12506013,61184fd3f123161339a9fc2f,6107d0959f7c4c3641818b95,611be4ed519389a4cb6d0215,
,,,,space,0.4723,,0,133,133,143,1,M, , , , ,space,2500,2.5,,001,2021-08-17_17h38.42.326,natb3,2021.2.3,Linux x86_64,60.12506013,61184fd3f123161339a9fc2f,6107d0959f7c4c3641818b95,611be4ed519389a4cb6d0215,
,,,,space,0.4466,,0,134,134,330,1,T, , , , ,space,2500,2.5,,001,2021-08-17_17h38.42.326,natb3,2021.2.3,Linux x86_64,60.12506013,61184fd3f123161339a9fc2f,6107d0959f7c4c3641818b95,611be4ed519389a4cb6d0215,
,,,,space,0.4541,,0,135,135,144,1,Q, , , , ,space,2500,2.5,,001,2021-08-17_17h38.42.326,natb3,2021.2.3,Linux x86_64,60.12506013,61184fd3f123161339a9fc2f,6107d0959f7c4c3641818b95,611be4ed519389a4cb6d0215,
,,,,space,0.4447,,0,136,136,316,1,Z, , , , ,space,1500,1.5,,001,2021-08-17_17h38.42.326,natb3,2021.2.3,Linux x86_64,60.12506013,61184fd3f123161339a9fc2f,6107d0959f7c4c3641818b95,611be4ed519389a4cb6d0215,
,,,,space,0.4674,,0,137,137,44,1,I, , , , ,space,2500,2.5,,001,2021-08-17_17h38.42.326,natb3,2021.2.3,Linux x86_64,60.12506013,61184fd3f123161339a9fc2f,6107d0959f7c4c3641818b95,611be4ed519389a4cb6d0215,
,,,,space,0.4459,,0,138,138,72,1,T, , , , ,space,1500,1.5,,001,2021-08-17_17h38.42.326,natb3,2021.2.3,Linux x86_64,60.12506013,61184fd3f123161339a9fc2f,6107d0959f7c4c3641818b95,611be4ed519389a4cb6d0215,
,,,,space,0.2951,,0,139,139,45,1,O, , , , ,space,2000,2,,001,2021-08-17_17h38.42.326,natb3,2021.2.3,Linux x86_64,60.12506013,61184fd3f123161339a9fc2f,6107d0959f7c4c3641818b95,611be4ed519389a4cb6d0215,
,,,,,,,0,140,140,89,1,X,3, , , ,,2000,2,,001,2021-08-17_17h38.42.326,natb3,2021.2.3,Linux x86_64,60.12506013,61184fd3f123161339a9fc2f,6107d0959f7c4c3641818b95,611be4ed519389a4cb6d0215,
,,,,space,0.4631,,0,141,141,240,1,F, , , , ,space,2500,2.5,,001,2021-08-17_17h38.42.326,natb3,2021.2.3,Linux x86_64,60.12506013,61184fd3f123161339a9fc2f,6107d0959f7c4c3641818b95,611be4ed519389a4cb6d0215,
,,,,,,,0,142,142,69,1,X, , , , ,,1500,1.5,,001,2021-08-17_17h38.42.326,natb3,2021.2.3,Linux x86_64,60.12506013,61184fd3f123161339a9fc2f,6107d0959f7c4c3641818b95,611be4ed519389a4cb6d0215,
,,,,space,0.5614,,0,143,143,225,1,E, , , , ,space,2000,2,,001,2021-08-17_17h38.42.326,natb3,2021.2.3,Linux x86_64,60.12506013,61184fd3f123161339a9fc2f,6107d0959f7c4c3641818b95,611be4ed519389a4cb6d0215,
,,,,space,0.7971,,0,144,144,73,1,Y, , , , ,space,2000,2,,001,2021-08-17_17h38.42.326,natb3,2021.2.3,Linux x86_64,60.12506013,61184fd3f123161339a9fc2f,6107d0959f7c4c3641818b95,611be4ed519389a4cb6d0215,
,,,,,,,0,145,145,7,1,X, , , , ,,1500,1.5,,001,2021-08-17_17h38.42.326,natb3,2021.2.3,Linux x86_64,60.12506013,61184fd3f123161339a9fc2f,6107d0959f7c4c3641818b95,611be4ed519389a4cb6d0215,
,,,,space,0.3482,,0,146,146,197,1,G, , , , ,space,2500,2.5,,001,2021-08-17_17h38.42.326,natb3,2021.2.3,Linux x86_64,60.12506013,61184fd3f123161339a9fc2f,6107d0959f7c4c3641818b95,611be4ed519389a4cb6d0215,
,,,,,,,0,147,147,96,1,X, , , , ,,1500,1.5,,001,2021-08-17_17h38.42.326,natb3,2021.2.3,Linux x86_64,60.12506013,61184fd3f123161339a9fc2f,6107d0959f7c4c3641818b95,611be4ed519389a4cb6d0215,
,,,,space,0.4668,,0,148,148,304,1,S, , , , ,space,2000,2,,001,2021-08-17_17h38.42.326,natb3,2021.2.3,Linux x86_64,60.12506013,61184fd3f123161339a9fc2f,6107d0959f7c4c3641818b95,611be4ed519389a4cb6d0215,
,,,,space,0.7535,,0,149,149,83,1,D, , , , ,space,2000,2,,001,2021-08-17_17h38.42.326,natb3,2021.2.3,Linux x86_64,60.12506013,61184fd3f123161339a9fc2f,6107d0959f7c4c3641818b95,611be4ed519389a4cb6d0215,
,,,,space,0.5985,,0,150,150,146,1,W, , , , ,space,1500,1.5,,001,2021-08-17_17h38.42.326,natb3,2021.2.3,Linux x86_64,60.12506013,61184fd3f123161339a9fc2f,6107d0959f7c4c3641818b95,611be4ed519389a4cb6d0215,
,,,,,,,0,151,151,294,1,T, , , , ,space,2000,2,,001,2021-08-17_17h38.42.326,natb3,2021.2.3,Linux x86_64,60.12506013,61184fd3f123161339a9fc2f,6107d0959f7c4c3641818b95,611be4ed519389a4cb6d0215,
,,,,space,0.3862,,0,152,152,63,1,B, , , , ,space,2000,2,,001,2021-08-17_17h38.42.326,natb3,2021.2.3,Linux x86_64,60.12506013,61184fd3f123161339a9fc2f,6107d0959f7c4c3641818b95,611be4ed519389a4cb6d0215,
,,,,space,0.5659,,0,153,153,167,1,K, , , , ,space,1500,1.5,,001,2021-08-17_17h38.42.326,natb3,2021.2.3,Linux x86_64,60.12506013,61184fd3f123161339a9fc2f,6107d0959f7c4c3641818b95,611be4ed519389a4cb6d0215,
,,,,space,0.4009,,0,154,154,135,1,K, , , , ,space,1500,1.5,,001,2021-08-17_17h38.42.326,natb3,2021.2.3,Linux x86_64,60.12506013,61184fd3f123161339a9fc2f,6107d0959f7c4c3641818b95,611be4ed519389a4cb6d0215,
,,,,space,0.4006,,0,155,155,163,1,G, , , , ,space,2500,2.5,,001,2021-08-17_17h38.42.326,natb3,2021.2.3,Linux x86_64,60.12506013,61184fd3f123161339a9fc2f,6107d0959f7c4c3641818b95,611be4ed519389a4cb6d0215,
,,,,,,,0,156,156,82,1,X,4,6,1,7,,2000,2,,001,2021-08-17_17h38.42.326,natb3,2021.2.3,Linux x86_64,60.12506013,61184fd3f123161339a9fc2f,6107d0959f7c4c3641818b95,611be4ed519389a4cb6d0215,
,,,,,,,0,157,157,182,1,X, , , , ,,1500,1.5,,001,2021-08-17_17h38.42.326,natb3,2021.2.3,Linux x86_64,60.12506013,61184fd3f123161339a9fc2f,6107d0959f7c4c3641818b95,611be4ed519389a4cb6d0215,
,,,,space,0.436,,0,158,158,325,1,X, , , , ,,2500,2.5,,001,2021-08-17_17h38.42.326,natb3,2021.2.3,Linux x86_64,60.12506013,61184fd3f123161339a9fc2f,6107d0959f7c4c3641818b95,611be4ed519389a4cb6d0215,
,,,,space,0.4695,,0,159,159,278,1,J, , , , ,space,2000,2,,001,2021-08-17_17h38.42.326,natb3,2021.2.3,Linux x86_64,60.12506013,61184fd3f123161339a9fc2f,6107d0959f7c4c3641818b95,611be4ed519389a4cb6d0215,
,,,,space,0.7461,,0,160,160,29,1,B, , , , ,space,1500,1.5,,001,2021-08-17_17h38.42.326,natb3,2021.2.3,Linux x86_64,60.12506013,61184fd3f123161339a9fc2f,6107d0959f7c4c3641818b95,611be4ed519389a4cb6d0215,
,,,,space,0.451,,0,161,161,81,1,S, , , , ,space,2000,2,,001,2021-08-17_17h38.42.326,natb3,2021.2.3,Linux x86_64,60.12506013,61184fd3f123161339a9fc2f,6107d0959f7c4c3641818b95,611be4ed519389a4cb6d0215,
,,,,space,0.5114,,0,162,162,21,1,J, , , , ,space,1500,1.5,,001,2021-08-17_17h38.42.326,natb3,2021.2.3,Linux x86_64,60.12506013,61184fd3f123161339a9fc2f,6107d0959f7c4c3641818b95,611be4ed519389a4cb6d0215,
,,,,space,0.4574,,0,163,163,214,1,W, , , , ,space,2000,2,,001,2021-08-17_17h38.42.326,natb3,2021.2.3,Linux x86_64,60.12506013,61184fd3f123161339a9fc2f,6107d0959f7c4c3641818b95,611be4ed519389a4cb6d0215,
,,,,,,,0,164,164,302,1,X, , , , ,,2000,2,,001,2021-08-17_17h38.42.326,natb3,2021.2.3,Linux x86_64,60.12506013,61184fd3f123161339a9fc2f,6107d0959f7c4c3641818b95,611be4ed519389a4cb6d0215,
,,,,,,,0,165,165,31,1,X, , , , ,,1500,1.5,,001,2021-08-17_17h38.42.326,natb3,2021.2.3,Linux x86_64,60.12506013,61184fd3f123161339a9fc2f,6107d0959f7c4c3641818b95,611be4ed519389a4cb6d0215,
,,,,space,0.4014,,0,166,166,306,1,D, , , , ,space,2000,2,,001,2021-08-17_17h38.42.326,natb3,2021.2.3,Linux x86_64,60.12506013,61184fd3f123161339a9fc2f,6107d0959f7c4c3641818b95,611be4ed519389a4cb6d0215,
,,,,space,0.4279,space,0,167,167,308,1,G, , , , ,space,1500,1.5,,001,2021-08-17_17h38.42.326,natb3,2021.2.3,Linux x86_64,60.12506013,61184fd3f123161339a9fc2f,6107d0959f7c4c3641818b95,611be4ed519389a4cb6d0215,6.6884
,,,,space,0.5014,,0,168,168,76,1,I, , , , ,space,2000,2,,001,2021-08-17_17h38.42.326,natb3,2021.2.3,Linux x86_64,60.12506013,61184fd3f123161339a9fc2f,6107d0959f7c4c3641818b95,611be4ed519389a4cb6d0215,
,,,,space,0.4853,,0,169,169,333,1,I, , , , ,space,1500,1.5,,001,2021-08-17_17h38.42.326,natb3,2021.2.3,Linux x86_64,60.12506013,61184fd3f123161339a9fc2f,6107d0959f7c4c3641818b95,611be4ed519389a4cb6d0215,
,,,,,,,0,170,170,273,1,X, , , , ,,2000,2,,001,2021-08-17_17h38.42.326,natb3,2021.2.3,Linux x86_64,60.12506013,61184fd3f123161339a9fc2f,6107d0959f7c4c3641818b95,611be4ed519389a4cb6d0215,
,,,,space,0.4949,,0,171,171,267,1,P, , , , ,space,2000,2,,001,2021-08-17_17h38.42.326,natb3,2021.2.3,Linux x86_64,60.12506013,61184fd3f123161339a9fc2f,6107d0959f7c4c3641818b95,611be4ed519389a4cb6d0215,
,,,,space,0.4165,,0,172,172,265,1,I, , , , ,space,2000,2,,001,2021-08-17_17h38.42.326,natb3,2021.2.3,Linux x86_64,60.12506013,61184fd3f123161339a9fc2f,6107d0959f7c4c3641818b95,611be4ed519389a4cb6d0215,
,,,,space,0.4359,,0,173,173,309,1,H, , , , ,space,2500,2.5,,001,2021-08-17_17h38.42.326,natb3,2021.2.3,Linux x86_64,60.12506013,61184fd3f123161339a9fc2f,6107d0959f7c4c3641818b95,611be4ed519389a4cb6d0215,
,,,,space,0.4873,,0,174,174,320,1,B, , , , ,space,1500,1.5,,001,2021-08-17_17h38.42.326,natb3,2021.2.3,Linux x86_64,60.12506013,61184fd3f123161339a9fc2f,6107d0959f7c4c3641818b95,611be4ed519389a4cb6d0215,
,,,,space,0.4725,,0,175,175,234,1,P, , , , ,space,2000,2,,001,2021-08-17_17h38.42.326,natb3,2021.2.3,Linux x86_64,60.12506013,61184fd3f123161339a9fc2f,6107d0959f7c4c3641818b95,611be4ed519389a4cb6d0215,
,,,,space,0.4618,,0,176,176,230,1,U, , , , ,space,1500,1.5,,001,2021-08-17_17h38.42.326,natb3,2021.2.3,Linux x86_64,60.12506013,61184fd3f123161339a9fc2f,6107d0959f7c4c3641818b95,611be4ed519389a4cb6d0215,
,,,,,,,0,177,177,213,1,X, , , , ,,2500,2.5,,001,2021-08-17_17h38.42.326,natb3,2021.2.3,Linux x86_64,60.12506013,61184fd3f123161339a9fc2f,6107d0959f7c4c3641818b95,611be4ed519389a4cb6d0215,
,,,,space,0.3991,,0,178,178,238,1,D, , , , ,space,1500,1.5,,001,2021-08-17_17h38.42.326,natb3,2021.2.3,Linux x86_64,60.12506013,61184fd3f123161339a9fc2f,6107d0959f7c4c3641818b95,611be4ed519389a4cb6d0215,
,,,,space,0.4789,,0,179,179,58,1,L, , , , ,space,2000,2,,001,2021-08-17_17h38.42.326,natb3,2021.2.3,Linux x86_64,60.12506013,61184fd3f123161339a9fc2f,6107d0959f7c4c3641818b95,611be4ed519389a4cb6d0215,
,,,,,,,0,180,180,318,1,X, , , , ,,1500,1.5,,001,2021-08-17_17h38.42.326,natb3,2021.2.3,Linux x86_64,60.12506013,61184fd3f123161339a9fc2f,6107d0959f7c4c3641818b95,611be4ed519389a4cb6d0215,
,,,,space,0.3968,,0,181,181,205,1,C, , , , ,space,2000,2,,001,2021-08-17_17h38.42.326,natb3,2021.2.3,Linux x86_64,60.12506013,61184fd3f123161339a9fc2f,6107d0959f7c4c3641818b95,611be4ed519389a4cb6d0215,
,,,,space,0.4483,,0,182,182,210,1,M, , , , ,space,1500,1.5,,001,2021-08-17_17h38.42.326,natb3,2021.2.3,Linux x86_64,60.12506013,61184fd3f123161339a9fc2f,6107d0959f7c4c3641818b95,611be4ed519389a4cb6d0215,
,,,,space,0.4189,,0,183,183,91,1,L, , , , ,space,2000,2,,001,2021-08-17_17h38.42.326,natb3,2021.2.3,Linux x86_64,60.12506013,61184fd3f123161339a9fc2f,6107d0959f7c4c3641818b95,611be4ed519389a4cb6d0215,
,,,,space,0.3491,,0,184,184,312,1,K, , , , ,space,2000,2,,001,2021-08-17_17h38.42.326,natb3,2021.2.3,Linux x86_64,60.12506013,61184fd3f123161339a9fc2f,6107d0959f7c4c3641818b95,611be4ed519389a4cb6d0215,
,,,,space,0.4228,,0,185,185,180,1,W, , , , ,space,2000,2,,001,2021-08-17_17h38.42.326,natb3,2021.2.3,Linux x86_64,60.12506013,61184fd3f123161339a9fc2f,6107d0959f7c4c3641818b95,611be4ed519389a4cb6d0215,
,,,,space,0.4806,,0,186,186,20,1,H, , , , ,space,1500,1.5,,001,2021-08-17_17h38.42.326,natb3,2021.2.3,Linux x86_64,60.12506013,61184fd3f123161339a9fc2f,6107d0959f7c4c3641818b95,611be4ed519389a4cb6d0215,
,,,,,,,0,187,187,255,1,X, , , , ,,1500,1.5,,001,2021-08-17_17h38.42.326,natb3,2021.2.3,Linux x86_64,60.12506013,61184fd3f123161339a9fc2f,6107d0959f7c4c3641818b95,611be4ed519389a4cb6d0215,
,,,,space,0.3675,,0,188,188,127,1,S, , , , ,space,2500,2.5,,001,2021-08-17_17h38.42.326,natb3,2021.2.3,Linux x86_64,60.12506013,61184fd3f123161339a9fc2f,6107d0959f7c4c3641818b95,611be4ed519389a4cb6d0215,
,,,,space,0.4567,,0,189,189,208,1,B, , , , ,space,1500,1.5,,001,2021-08-17_17h38.42.326,natb3,2021.2.3,Linux x86_64,60.12506013,61184fd3f123161339a9fc2f,6107d0959f7c4c3641818b95,611be4ed519389a4cb6d0215,
,,,,space,0.4132,,0,190,190,151,1,Y, , , , ,space,2500,2.5,,001,2021-08-17_17h38.42.326,natb3,2021.2.3,Linux x86_64,60.12506013,61184fd3f123161339a9fc2f,6107d0959f7c4c3641818b95,611be4ed519389a4cb6d0215,
,,,,,,,0,191,191,27,1,X,5, ,1,3,,1500,1.5,,001,2021-08-17_17h38.42.326,natb3,2021.2.3,Linux x86_64,60.12506013,61184fd3f123161339a9fc2f,6107d0959f7c4c3641818b95,611be4ed519389a4cb6d0215,
,,,,space,0.5028,,0,192,192,26,1,C, , , , ,space,2000,2,,001,2021-08-17_17h38.42.326,natb3,2021.2.3,Linux x86_64,60.12506013,61184fd3f123161339a9fc2f,6107d0959f7c4c3641818b95,611be4ed519389a4cb6d0215,
,,,,,,,0,193,193,138,1,X,8,5, ,3,,2000,2,,001,2021-08-17_17h38.42.326,natb3,2021.2.3,Linux x86_64,60.12506013,61184fd3f123161339a9fc2f,6107d0959f7c4c3641818b95,611be4ed519389a4cb6d0215,
,,,,,,,0,194,194,158,1,X, , , , ,,1500,1.5,,001,2021-08-17_17h38.42.326,natb3,2021.2.3,Linux x86_64,60.12506013,61184fd3f123161339a9fc2f,6107d0959f7c4c3641818b95,611be4ed519389a4cb6d0215,
,,,,space,0.5462,,0,195,195,36,1,W, , , , ,space,2000,2,,001,2021-08-17_17h38.42.326,natb3,2021.2.3,Linux x86_64,60.12506013,61184fd3f123161339a9fc2f,6107d0959f7c4c3641818b95,611be4ed519389a4cb6d0215,
,,,,space,0.5005,,0,196,196,38,1,R, , , , ,space,2500,2.5,,001,2021-08-17_17h38.42.326,natb3,2021.2.3,Linux x86_64,60.12506013,61184fd3f123161339a9fc2f,6107d0959f7c4c3641818b95,611be4ed519389a4cb6d0215,
,,,,space,0.5696,,0,197,197,85,1,F, , , , ,space,2500,2.5,,001,2021-08-17_17h38.42.326,natb3,2021.2.3,Linux x86_64,60.12506013,61184fd3f123161339a9fc2f,6107d0959f7c4c3641818b95,611be4ed519389a4cb6d0215,
,,,,space,0.4278,,0,198,198,323,1,M, , , , ,space,2500,2.5,,001,2021-08-17_17h38.42.326,natb3,2021.2.3,Linux x86_64,60.12506013,61184fd3f123161339a9fc2f,6107d0959f7c4c3641818b95,611be4ed519389a4cb6d0215,
,,,,,,,0,199,199,187,1,X, ,3,7,4,,1500,1.5,,001,2021-08-17_17h38.42.326,natb3,2021.2.3,Linux x86_64,60.12506013,61184fd3f123161339a9fc2f,6107d0959f7c4c3641818b95,611be4ed519389a4cb6d0215,
,,,,space,0.4375,,0,200,200,199,1,J, , , , ,space,2500,2.5,,001,2021-08-17_17h38.42.326,natb3,2021.2.3,Linux x86_64,60.12506013,61184fd3f123161339a9fc2f,6107d0959f7c4c3641818b95,611be4ed519389a4cb6d0215,
,,,,,,,0,201,201,66,1,X, ,4,7, ,,2000,2,,001,2021-08-17_17h38.42.326,natb3,2021.2.3,Linux x86_64,60.12506013,61184fd3f123161339a9fc2f,6107d0959f7c4c3641818b95,611be4ed519389a4cb6d0215,
,,,,space,0.5097,,0,202,202,8,1,U, , , , ,space,1500,1.5,,001,2021-08-17_17h38.42.326,natb3,2021.2.3,Linux x86_64,60.12506013,61184fd3f123161339a9fc2f,6107d0959f7c4c3641818b95,611be4ed519389a4cb6d0215,
,,,,space,0.4305,,0,203,203,111,1,O, , , , ,space,2000,2,,001,2021-08-17_17h38.42.326,natb3,2021.2.3,Linux x86_64,60.12506013,61184fd3f123161339a9fc2f,6107d0959f7c4c3641818b95,611be4ed519389a4cb6d0215,
,,,,space,0.4225,,0,204,204,94,1,C, , , , ,space,2000,2,,001,2021-08-17_17h38.42.326,natb3,2021.2.3,Linux x86_64,60.12506013,61184fd3f123161339a9fc2f,6107d0959f7c4c3641818b95,611be4ed519389a4cb6d0215,
,,,,space,0.5127,,0,205,205,324,1,Q, , , , ,space,2000,2,,001,2021-08-17_17h38.42.326,natb3,2021.2.3,Linux x86_64,60.12506013,61184fd3f123161339a9fc2f,6107d0959f7c4c3641818b95,611be4ed519389a4cb6d0215,
,,,,space,0.3401,,0,206,206,5,1,T, , , , ,space,2000,2,,001,2021-08-17_17h38.42.326,natb3,2021.2.3,Linux x86_64,60.12506013,61184fd3f123161339a9fc2f,6107d0959f7c4c3641818b95,611be4ed519389a4cb6d0215,
,,,,space,0.4136,,0,207,207,114,1,E, , , , ,space,2000,2,,001,2021-08-17_17h38.42.326,natb3,2021.2.3,Linux x86_64,60.12506013,61184fd3f123161339a9fc2f,6107d0959f7c4c3641818b95,611be4ed519389a4cb6d0215,
,,,,space,0.7822,,0,208,208,40,1,T, , , , ,space,1500,1.5,,001,2021-08-17_17h38.42.326,natb3,2021.2.3,Linux x86_64,60.12506013,61184fd3f123161339a9fc2f,6107d0959f7c4c3641818b95,611be4ed519389a4cb6d0215,
,,,,space,0.3438,,0,209,209,116,1,X, , , , ,,2000,2,,001,2021-08-17_17h38.42.326,natb3,2021.2.3,Linux x86_64,60.12506013,61184fd3f123161339a9fc2f,6107d0959f7c4c3641818b95,611be4ed519389a4cb6d0215,
,,,,space,0.3477,,0,210,210,126,1,A, , , , ,space,2500,2.5,,001,2021-08-17_17h38.42.326,natb3,2021.2.3,Linux x86_64,60.12506013,61184fd3f123161339a9fc2f,6107d0959f7c4c3641818b95,611be4ed519389a4cb6d0215,
,,,,,,,0,211,211,329,1,X,3,4, ,2,,2500,2.5,,001,2021-08-17_17h38.42.326,natb3,2021.2.3,Linux x86_64,60.12506013,61184fd3f123161339a9fc2f,6107d0959f7c4c3641818b95,611be4ed519389a4cb6d0215,
,,,,,,,0,212,212,259,1,X,8, , ,3,,2500,2.5,,001,2021-08-17_17h38.42.326,natb3,2021.2.3,Linux x86_64,60.12506013,61184fd3f123161339a9fc2f,6107d0959f7c4c3641818b95,611be4ed519389a4cb6d0215,
,,,,space,0.4094,,0,213,213,53,1,G, , , , ,space,2500,2.5,,001,2021-08-17_17h38.42.326,natb3,2021.2.3,Linux x86_64,60.12506013,61184fd3f123161339a9fc2f,6107d0959f7c4c3641818b95,611be4ed519389a4cb6d0215,
,,,,space,0.6651,,0,214,214,170,1,Z, , , , ,space,2000,2,,001,2021-08-17_17h38.42.326,natb3,2021.2.3,Linux x86_64,60.12506013,61184fd3f123161339a9fc2f,6107d0959f7c4c3641818b95,611be4ed519389a4cb6d0215,
,,,,,,,0,215,215,299,1,X, , , , ,,2500,2.5,,001,2021-08-17_17h38.42.326,natb3,2021.2.3,Linux x86_64,60.12506013,61184fd3f123161339a9fc2f,6107d0959f7c4c3641818b95,611be4ed519389a4cb6d0215,
,,,,space,0.4136,,0,216,216,198,1,H, , , , ,space,2500,2.5,,001,2021-08-17_17h38.42.326,natb3,2021.2.3,Linux x86_64,60.12506013,61184fd3f123161339a9fc2f,6107d0959f7c4c3641818b95,611be4ed519389a4cb6d0215,
,,,,,,,0,217,217,313,1,X, , , , ,,2500,2.5,,001,2021-08-17_17h38.42.326,natb3,2021.2.3,Linux x86_64,60.12506013,61184fd3f123161339a9fc2f,6107d0959f7c4c3641818b95,611be4ed519389a4cb6d0215,
,,,,space,0.3786,,0,218,218,184,1,T, , , , ,space,2000,2,,001,2021-08-17_17h38.42.326,natb3,2021.2.3,Linux x86_64,60.12506013,61184fd3f123161339a9fc2f,6107d0959f7c4c3641818b95,611be4ed519389a4cb6d0215,
,,,,space,0.4119,,0,219,219,79,1,P, , , , ,space,2000,2,,001,2021-08-17_17h38.42.326,natb3,2021.2.3,Linux x86_64,60.12506013,61184fd3f123161339a9fc2f,6107d0959f7c4c3641818b95,611be4ed519389a4cb6d0215,
,,,,space,0.4491,,0,220,220,307,1,F, , , , ,space,2500,2.5,,001,2021-08-17_17h38.42.326,natb3,2021.2.3,Linux x86_64,60.12506013,61184fd3f123161339a9fc2f,6107d0959f7c4c3641818b95,611be4ed519389a4cb6d0215,
,,,,space,0.4502,,0,221,221,300,1,O, , , , ,space,2500,2.5,,001,2021-08-17_17h38.42.326,natb3,2021.2.3,Linux x86_64,60.12506013,61184fd3f123161339a9fc2f,6107d0959f7c4c3641818b95,611be4ed519389a4cb6d0215,
,,,,,,,0,222,222,46,1,X, , , , ,,2000,2,,001,2021-08-17_17h38.42.326,natb3,2021.2.3,Linux x86_64,60.12506013,61184fd3f123161339a9fc2f,6107d0959f7c4c3641818b95,611be4ed519389a4cb6d0215,
,,,,space,0.4087,,0,223,223,212,1,Q, , , , ,space,2500,2.5,,001,2021-08-17_17h38.42.326,natb3,2021.2.3,Linux x86_64,60.12506013,61184fd3f123161339a9fc2f,6107d0959f7c4c3641818b95,611be4ed519389a4cb6d0215,
,,,,space,0.4522,,0,224,224,285,1,B, , , , ,space,1500,1.5,,001,2021-08-17_17h38.42.326,natb3,2021.2.3,Linux x86_64,60.12506013,61184fd3f123161339a9fc2f,6107d0959f7c4c3641818b95,611be4ed519389a4cb6d0215,
,,,,space,0.4337,,0,225,225,130,1,F, , , , ,space,2000,2,,001,2021-08-17_17h38.42.326,natb3,2021.2.3,Linux x86_64,60.12506013,61184fd3f123161339a9fc2f,6107d0959f7c4c3641818b95,611be4ed519389a4cb6d0215,
,,,,space,0.4512,,0,226,226,99,1,N, , , , ,space,2500,2.5,,001,2021-08-17_17h38.42.326,natb3,2021.2.3,Linux x86_64,60.12506013,61184fd3f123161339a9fc2f,6107d0959f7c4c3641818b95,611be4ed519389a4cb6d0215,
,,,,space,0.5145,,0,227,227,121,1,I, , , , ,space,2000,2,,001,2021-08-17_17h38.42.326,natb3,2021.2.3,Linux x86_64,60.12506013,61184fd3f123161339a9fc2f,6107d0959f7c4c3641818b95,611be4ed519389a4cb6d0215,
,,,,space,0.4853,,0,228,228,190,1,P, , , , ,space,2000,2,,001,2021-08-17_17h38.42.326,natb3,2021.2.3,Linux x86_64,60.12506013,61184fd3f123161339a9fc2f,6107d0959f7c4c3641818b95,611be4ed519389a4cb6d0215,
,,,,space,0.3662,,0,229,229,169,1,L, , , , ,space,2500,2.5,,001,2021-08-17_17h38.42.326,natb3,2021.2.3,Linux x86_64,60.12506013,61184fd3f123161339a9fc2f,6107d0959f7c4c3641818b95,611be4ed519389a4cb6d0215,
,,,,space,0.4362,,0,230,230,319,1,V, , , , ,space,2000,2,,001,2021-08-17_17h38.42.326,natb3,2021.2.3,Linux x86_64,60.12506013,61184fd3f123161339a9fc2f,6107d0959f7c4c3641818b95,611be4ed519389a4cb6d0215,
,,,,space,0.4536,,0,231,231,47,1,P, , , , ,space,2000,2,,001,2021-08-17_17h38.42.326,natb3,2021.2.3,Linux x86_64,60.12506013,61184fd3f123161339a9fc2f,6107d0959f7c4c3641818b95,611be4ed519389a4cb6d0215,
,,,,space,0.3965,,0,232,232,188,1,I, , , , ,space,2500,2.5,,001,2021-08-17_17h38.42.326,natb3,2021.2.3,Linux x86_64,60.12506013,61184fd3f123161339a9fc2f,6107d0959f7c4c3641818b95,611be4ed519389a4cb6d0215,
,,,,space,0.4676,,0,233,233,22,1,K, , , , ,space,2000,2,,001,2021-08-17_17h38.42.326,natb3,2021.2.3,Linux x86_64,60.12506013,61184fd3f123161339a9fc2f,6107d0959f7c4c3641818b95,611be4ed519389a4cb6d0215,
,,,,,,,0,234,234,268,1,X,6, ,3, ,,2500,2.5,,001,2021-08-17_17h38.42.326,natb3,2021.2.3,Linux x86_64,60.12506013,61184fd3f123161339a9fc2f,6107d0959f7c4c3641818b95,611be4ed519389a4cb6d0215,
,,,,space,0.4217,,0,235,235,9,1,I, , , , ,space,1500,1.5,,001,2021-08-17_17h38.42.326,natb3,2021.2.3,Linux x86_64,60.12506013,61184fd3f123161339a9fc2f,6107d0959f7c4c3641818b95,611be4ed519389a4cb6d0215,
,,,,space,0.3972,,0,236,236,172,1,C, , , , ,space,1500,1.5,,001,2021-08-17_17h38.42.326,natb3,2021.2.3,Linux x86_64,60.12506013,61184fd3f123161339a9fc2f,6107d0959f7c4c3641818b95,611be4ed519389a4cb6d0215,
,,,,,,,0,237,237,305,1,X, , , , ,,1500,1.5,,001,2021-08-17_17h38.42.326,natb3,2021.2.3,Linux x86_64,60.12506013,61184fd3f123161339a9fc2f,6107d0959f7c4c3641818b95,611be4ed519389a4cb6d0215,
,,,,space,0.3957,,0,238,238,149,1,R, , , , ,space,2000,2,,001,2021-08-17_17h38.42.326,natb3,2021.2.3,Linux x86_64,60.12506013,61184fd3f123161339a9fc2f,6107d0959f7c4c3641818b95,611be4ed519389a4cb6d0215,
,,,,space,0.7149,,0,239,239,0,1,Q, , , , ,space,1500,1.5,,001,2021-08-17_17h38.42.326,natb3,2021.2.3,Linux x86_64,60.12506013,61184fd3f123161339a9fc2f,6107d0959f7c4c3641818b95,611be4ed519389a4cb6d0215,
,,,,space,0.5178,,0,240,240,220,1,U, , , , ,space,2500,2.5,,001,2021-08-17_17h38.42.326,natb3,2021.2.3,Linux x86_64,60.12506013,61184fd3f123161339a9fc2f,6107d0959f7c4c3641818b95,611be4ed519389a4cb6d0215,
,,,,space,0.4333,,0,241,241,119,1,Y, , , , ,space,2500,2.5,,001,2021-08-17_17h38.42.326,natb3,2021.2.3,Linux x86_64,60.12506013,61184fd3f123161339a9fc2f,6107d0959f7c4c3641818b95,611be4ed519389a4cb6d0215,
,,,,space,0.3965,,0,242,242,24,1,L, , , , ,space,2500,2.5,,001,2021-08-17_17h38.42.326,natb3,2021.2.3,Linux x86_64,60.12506013,61184fd3f123161339a9fc2f,6107d0959f7c4c3641818b95,611be4ed519389a4cb6d0215,
,,,,space,0.3805,,0,243,243,186,1,U, , , , ,space,2500,2.5,,001,2021-08-17_17h38.42.326,natb3,2021.2.3,Linux x86_64,60.12506013,61184fd3f123161339a9fc2f,6107d0959f7c4c3641818b95,611be4ed519389a4cb6d0215,
,,,,space,0.4198,,0,244,244,328,1,R, , , , ,space,1500,1.5,,001,2021-08-17_17h38.42.326,natb3,2021.2.3,Linux x86_64,60.12506013,61184fd3f123161339a9fc2f,6107d0959f7c4c3641818b95,611be4ed519389a4cb6d0215,
,,,,space,0.4292,,0,245,245,252,1,X,3, ,6,9,,2000,2,,001,2021-08-17_17h38.42.326,natb3,2021.2.3,Linux x86_64,60.12506013,61184fd3f123161339a9fc2f,6107d0959f7c4c3641818b95,611be4ed519389a4cb6d0215,
,,,,space,0.4043,,0,246,246,48,1,A, , , , ,space,2500,2.5,,001,2021-08-17_17h38.42.326,natb3,2021.2.3,Linux x86_64,60.12506013,61184fd3f123161339a9fc2f,6107d0959f7c4c3641818b95,611be4ed519389a4cb6d0215,
,,,,space,0.3979,,0,247,247,19,1,G, , , , ,space,1500,1.5,,001,2021-08-17_17h38.42.326,natb3,2021.2.3,Linux x86_64,60.12506013,61184fd3f123161339a9fc2f,6107d0959f7c4c3641818b95,611be4ed519389a4cb6d0215,
,,,,,,,0,248,248,229,1,X,8, ,2,6,,2500,2.5,,001,2021-08-17_17h38.42.326,natb3,2021.2.3,Linux x86_64,60.12506013,61184fd3f123161339a9fc2f,6107d0959f7c4c3641818b95,611be4ed519389a4cb6d0215,
,,,,,,,0,249,249,211,1,X, , , , ,,2500,2.5,,001,2021-08-17_17h38.42.326,natb3,2021.2.3,Linux x86_64,60.12506013,61184fd3f123161339a9fc2f,6107d0959f7c4c3641818b95,611be4ed519389a4cb6d0215,
,,,,space,0.4165,,0,250,250,292,1,E, , , , ,space,2000,2,,001,2021-08-17_17h38.42.326,natb3,2021.2.3,Linux x86_64,60.12506013,61184fd3f123161339a9fc2f,6107d0959f7c4c3641818b95,611be4ed519389a4cb6d0215,
,,,,space,0.5143,,0,251,251,241,1,G, , , , ,space,2500,2.5,,001,2021-08-17_17h38.42.326,natb3,2021.2.3,Linux x86_64,60.12506013,61184fd3f123161339a9fc2f,6107d0959f7c4c3641818b95,611be4ed519389a4cb6d0215,
,,,,,,,0,252,252,171,1,X, , , , ,,1500,1.5,,001,2021-08-17_17h38.42.326,natb3,2021.2.3,Linux x86_64,60.12506013,61184fd3f123161339a9fc2f,6107d0959f7c4c3641818b95,611be4ed519389a4cb6d0215,
,,,,space,0.7045,,0,253,253,88,1,J, , , , ,space,2500,2.5,,001,2021-08-17_17h38.42.326,natb3,2021.2.3,Linux x86_64,60.12506013,61184fd3f123161339a9fc2f,6107d0959f7c4c3641818b95,611be4ed519389a4cb6d0215,
,,,,space,0.4692,,0,254,254,68,1,W, , , , ,space,2500,2.5,,001,2021-08-17_17h38.42.326,natb3,2021.2.3,Linux x86_64,60.12506013,61184fd3f123161339a9fc2f,6107d0959f7c4c3641818b95,611be4ed519389a4cb6d0215,
,,,,space,0.5145,,0,255,255,25,1,Z, , , , ,space,2500,2.5,,001,2021-08-17_17h38.42.326,natb3,2021.2.3,Linux x86_64,60.12506013,61184fd3f123161339a9fc2f,6107d0959f7c4c3641818b95,611be4ed519389a4cb6d0215,
,,,,space,0.4644,,0,256,256,226,1,R, , , , ,space,2000,2,,001,2021-08-17_17h38.42.326,natb3,2021.2.3,Linux x86_64,60.12506013,61184fd3f123161339a9fc2f,6107d0959f7c4c3641818b95,611be4ed519389a4cb6d0215,
,,,,space,0.4444,,0,257,257,165,1,J, , , , ,space,2500,2.5,,001,2021-08-17_17h38.42.326,natb3,2021.2.3,Linux x86_64,60.12506013,61184fd3f123161339a9fc2f,6107d0959f7c4c3641818b95,611be4ed519389a4cb6d0215,
,,,,,,,0,258,258,42,1,U, , , , ,space,1500,1.5,,001,2021-08-17_17h38.42.326,natb3,2021.2.3,Linux x86_64,60.12506013,61184fd3f123161339a9fc2f,6107d0959f7c4c3641818b95,611be4ed519389a4cb6d0215,
,,,,space,0.4516,,0,259,259,192,1,A, , , , ,space,2000,2,,001,2021-08-17_17h38.42.326,natb3,2021.2.3,Linux x86_64,60.12506013,61184fd3f123161339a9fc2f,6107d0959f7c4c3641818b95,611be4ed519389a4cb6d0215,
,,,,,,,0,260,260,78,1,X, , , , ,,2000,2,,001,2021-08-17_17h38.42.326,natb3,2021.2.3,Linux x86_64,60.12506013,61184fd3f123161339a9fc2f,6107d0959f7c4c3641818b95,611be4ed519389a4cb6d0215,
,,,,space,0.4159,,0,261,261,14,1,S, , , , ,space,2500,2.5,,001,2021-08-17_17h38.42.326,natb3,2021.2.3,Linux x86_64,60.12506013,61184fd3f123161339a9fc2f,6107d0959f7c4c3641818b95,611be4ed519389a4cb6d0215,
,,,,space,0.4636,,0,262,262,62,1,V, , , , ,space,1500,1.5,,001,2021-08-17_17h38.42.326,natb3,2021.2.3,Linux x86_64,60.12506013,61184fd3f123161339a9fc2f,6107d0959f7c4c3641818b95,611be4ed519389a4cb6d0215,
,,,,space,0.5165,,0,263,263,270,1,S, , , , ,space,1500,1.5,,001,2021-08-17_17h38.42.326,natb3,2021.2.3,Linux x86_64,60.12506013,61184fd3f123161339a9fc2f,6107d0959f7c4c3641818b95,611be4ed519389a4cb6d0215,
,,,,,,,0,264,264,93,1,X,5, ,7, ,,2500,2.5,,001,2021-08-17_17h38.42.326,natb3,2021.2.3,Linux x86_64,60.12506013,61184fd3f123161339a9fc2f,6107d0959f7c4c3641818b95,611be4ed519389a4cb6d0215,
,,,,space,0.4589,,0,265,265,258,1,E, , , , ,space,1500,1.5,,001,2021-08-17_17h38.42.326,natb3,2021.2.3,Linux x86_64,60.12506013,61184fd3f123161339a9fc2f,6107d0959f7c4c3641818b95,611be4ed519389a4cb6d0215,
,,,,space,0.4733,,0,266,266,231,1,I, , , , ,space,2500,2.5,,001,2021-08-17_17h38.42.326,natb3,2021.2.3,Linux x86_64,60.12506013,61184fd3f123161339a9fc2f,6107d0959f7c4c3641818b95,611be4ed519389a4cb6d0215,
,,,,,,,0,267,267,84,1,X, , , , ,,2000,2,,001,2021-08-17_17h38.42.326,natb3,2021.2.3,Linux x86_64,60.12506013,61184fd3f123161339a9fc2f,6107d0959f7c4c3641818b95,611be4ed519389a4cb6d0215,
,,,,space,0.6006,,0,268,268,209,1,N, , , , ,space,2000,2,,001,2021-08-17_17h38.42.326,natb3,2021.2.3,Linux x86_64,60.12506013,61184fd3f123161339a9fc2f,6107d0959f7c4c3641818b95,611be4ed519389a4cb6d0215,
,,,,space,0.4507,,0,269,269,317,1,C, , , , ,space,2000,2,,001,2021-08-17_17h38.42.326,natb3,2021.2.3,Linux x86_64,60.12506013,61184fd3f123161339a9fc2f,6107d0959f7c4c3641818b95,611be4ed519389a4cb6d0215,
,,,,space,0.3821,,0,270,270,124,1,P, , , , ,space,2000,2,,001,2021-08-17_17h38.42.326,natb3,2021.2.3,Linux x86_64,60.12506013,61184fd3f123161339a9fc2f,6107d0959f7c4c3641818b95,611be4ed519389a4cb6d0215,
,,,,space,0.4461,,0,271,271,284,1,V, , , , ,space,2500,2.5,,001,2021-08-17_17h38.42.326,natb3,2021.2.3,Linux x86_64,60.12506013,61184fd3f123161339a9fc2f,6107d0959f7c4c3641818b95,611be4ed519389a4cb6d0215,
,,,,space,0.4091,,0,272,272,49,1,S, , , , ,space,1500,1.5,,001,2021-08-17_17h38.42.326,natb3,2021.2.3,Linux x86_64,60.12506013,61184fd3f123161339a9fc2f,6107d0959f7c4c3641818b95,611be4ed519389a4cb6d0215,
,,,,space,0.5026,,0,273,273,16,1,D, , , , ,space,1500,1.5,,001,2021-08-17_17h38.42.326,natb3,2021.2.3,Linux x86_64,60.12506013,61184fd3f123161339a9fc2f,6107d0959f7c4c3641818b95,611be4ed519389a4cb6d0215,
,,,,space,0.4873,,0,274,274,160,1,D, , , , ,space,1500,1.5,,001,2021-08-17_17h38.42.326,natb3,2021.2.3,Linux x86_64,60.12506013,61184fd3f123161339a9fc2f,6107d0959f7c4c3641818b95,611be4ed519389a4cb6d0215,
,,,,space,0.4314,,0,275,275,101,1,Q, , , , ,space,2500,2.5,,001,2021-08-17_17h38.42.326,natb3,2021.2.3,Linux x86_64,60.12506013,61184fd3f123161339a9fc2f,6107d0959f7c4c3641818b95,611be4ed519389a4cb6d0215,
,,,,,,,0,276,276,248,1,X, ,1,5, ,,1500,1.5,,001,2021-08-17_17h38.42.326,natb3,2021.2.3,Linux x86_64,60.12506013,61184fd3f123161339a9fc2f,6107d0959f7c4c3641818b95,611be4ed519389a4cb6d0215,
,,,,,,,0,277,277,54,1,X, , , , ,,2000,2,,001,2021-08-17_17h38.42.326,natb3,2021.2.3,Linux x86_64,60.12506013,61184fd3f123161339a9fc2f,6107d0959f7c4c3641818b95,611be4ed519389a4cb6d0215,
,,,,space,0.4156,,0,278,278,136,1,Z, , , , ,space,2500,2.5,,001,2021-08-17_17h38.42.326,natb3,2021.2.3,Linux x86_64,60.12506013,61184fd3f123161339a9fc2f,6107d0959f7c4c3641818b95,611be4ed519389a4cb6d0215,
,,,,space,0.5335,,0,279,279,189,1,O, , , , ,space,1500,1.5,,001,2021-08-17_17h38.42.326,natb3,2021.2.3,Linux x86_64,60.12506013,61184fd3f123161339a9fc2f,6107d0959f7c4c3641818b95,611be4ed519389a4cb6d0215,
,,,,space,0.53,,0,280,280,56,1,J, , , , ,space,1500,1.5,,001,2021-08-17_17h38.42.326,natb3,2021.2.3,Linux x86_64,60.12506013,61184fd3f123161339a9fc2f,6107d0959f7c4c3641818b95,611be4ed519389a4cb6d0215,
,,,,space,0.4524,,0,281,281,17,1,F, , , , ,space,2500,2.5,,001,2021-08-17_17h38.42.326,natb3,2021.2.3,Linux x86_64,60.12506013,61184fd3f123161339a9fc2f,6107d0959f7c4c3641818b95,611be4ed519389a4cb6d0215,
,,,,space,0.4266,,0,282,282,154,1,I, , , , ,space,2500,2.5,,001,2021-08-17_17h38.42.326,natb3,2021.2.3,Linux x86_64,60.12506013,61184fd3f123161339a9fc2f,6107d0959f7c4c3641818b95,611be4ed519389a4cb6d0215,
,,,,space,0.7354,,0,283,283,293,1,R, , , , ,space,2500,2.5,,001,2021-08-17_17h38.42.326,natb3,2021.2.3,Linux x86_64,60.12506013,61184fd3f123161339a9fc2f,6107d0959f7c4c3641818b95,611be4ed519389a4cb6d0215,
,,,,space,0.4392,,0,284,284,262,1,Y, , , , ,space,2500,2.5,,001,2021-08-17_17h38.42.326,natb3,2021.2.3,Linux x86_64,60.12506013,61184fd3f123161339a9fc2f,6107d0959f7c4c3641818b95,611be4ed519389a4cb6d0215,
,,,,space,0.8504,,0,285,285,152,1,U, , , , ,space,2000,2,,001,2021-08-17_17h38.42.326,natb3,2021.2.3,Linux x86_64,60.12506013,61184fd3f123161339a9fc2f,6107d0959f7c4c3641818b95,611be4ed519389a4cb6d0215,
,,,,space,0.6342,,0,286,286,65,1,M, , , , ,space,1500,1.5,,001,2021-08-17_17h38.42.326,natb3,2021.2.3,Linux x86_64,60.12506013,61184fd3f123161339a9fc2f,6107d0959f7c4c3641818b95,611be4ed519389a4cb6d0215,
,,,,,,,0,287,287,4,1,X, , , , ,,2000,2,,001,2021-08-17_17h38.42.326,natb3,2021.2.3,Linux x86_64,60.12506013,61184fd3f123161339a9fc2f,6107d0959f7c4c3641818b95,611be4ed519389a4cb6d0215,
,,,,space,0.385,,0,288,288,282,1,X, , , , ,,2500,2.5,,001,2021-08-17_17h38.42.326,natb3,2021.2.3,Linux x86_64,60.12506013,61184fd3f123161339a9fc2f,6107d0959f7c4c3641818b95,611be4ed519389a4cb6d0215,
,,,,,,,0,289,289,32,1,M, , , , ,space,1500,1.5,,001,2021-08-17_17h38.42.326,natb3,2021.2.3,Linux x86_64,60.12506013,61184fd3f123161339a9fc2f,6107d0959f7c4c3641818b95,611be4ed519389a4cb6d0215,
,,,,,,,0,290,290,203,1,X, , , , ,,2500,2.5,,001,2021-08-17_17h38.42.326,natb3,2021.2.3,Linux x86_64,60.12506013,61184fd3f123161339a9fc2f,6107d0959f7c4c3641818b95,611be4ed519389a4cb6d0215,
,,,,space,0.4664,,0,291,291,223,1,Q, , , , ,space,2000,2,,001,2021-08-17_17h38.42.326,natb3,2021.2.3,Linux x86_64,60.12506013,61184fd3f123161339a9fc2f,6107d0959f7c4c3641818b95,611be4ed519389a4cb6d0215,
,,,,,,,0,292,292,239,1,X, , , , ,,2000,2,,001,2021-08-17_17h38.42.326,natb3,2021.2.3,Linux x86_64,60.12506013,61184fd3f123161339a9fc2f,6107d0959f7c4c3641818b95,611be4ed519389a4cb6d0215,
,,,,space,0.4505,,0,293,293,286,1,N, , , , ,space,1500,1.5,,001,2021-08-17_17h38.42.326,natb3,2021.2.3,Linux x86_64,60.12506013,61184fd3f123161339a9fc2f,6107d0959f7c4c3641818b95,611be4ed519389a4cb6d0215,
,,,,,,,0,294,294,295,1,X,8,7,5, ,,2500,2.5,,001,2021-08-17_17h38.42.326,natb3,2021.2.3,Linux x86_64,60.12506013,61184fd3f123161339a9fc2f,6107d0959f7c4c3641818b95,611be4ed519389a4cb6d0215,
,,,,,,,0,295,295,233,1,X, ,2, ,5,,1500,1.5,,001,2021-08-17_17h38.42.326,natb3,2021.2.3,Linux x86_64,60.12506013,61184fd3f123161339a9fc2f,6107d0959f7c4c3641818b95,611be4ed519389a4cb6d0215,
,,,,space,0.5013,,0,296,296,283,1,C, , , , ,space,1500,1.5,,001,2021-08-17_17h38.42.326,natb3,2021.2.3,Linux x86_64,60.12506013,61184fd3f123161339a9fc2f,6107d0959f7c4c3641818b95,611be4ed519389a4cb6d0215,
,,,,space,0.4677,,0,297,297,181,1,E, , , , ,space,1500,1.5,,001,2021-08-17_17h38.42.326,natb3,2021.2.3,Linux x86_64,60.12506013,61184fd3f123161339a9fc2f,6107d0959f7c4c3641818b95,611be4ed519389a4cb6d0215,
,,,,space,0.8977,,0,298,298,92,1,Z, , , , ,space,1500,1.5,,001,2021-08-17_17h38.42.326,natb3,2021.2.3,Linux x86_64,60.12506013,61184fd3f123161339a9fc2f,6107d0959f7c4c3641818b95,611be4ed519389a4cb6d0215,
,,,,space,0.4684,,0,299,299,95,1,V, , , , ,space,1500,1.5,,001,2021-08-17_17h38.42.326,natb3,2021.2.3,Linux x86_64,60.12506013,61184fd3f123161339a9fc2f,6107d0959f7c4c3641818b95,611be4ed519389a4cb6d0215,
,,,,,,,0,300,300,60,1,X,7,3,5, ,,1500,1.5,,001,2021-08-17_17h38.42.326,natb3,2021.2.3,Linux x86_64,60.12506013,61184fd3f123161339a9fc2f,6107d0959f7c4c3641818b95,611be4ed519389a4cb6d0215,
,,,,space,0.4171,,0,301,301,264,1,U, , , , ,space,2000,2,,001,2021-08-17_17h38.42.326,natb3,2021.2.3,Linux x86_64,60.12506013,61184fd3f123161339a9fc2f,6107d0959f7c4c3641818b95,611be4ed519389a4cb6d0215,
,,,,space,0.4805,,0,302,302,288,1,M, , , , ,space,1500,1.5,,001,2021-08-17_17h38.42.326,natb3,2021.2.3,Linux x86_64,60.12506013,61184fd3f123161339a9fc2f,6107d0959f7c4c3641818b95,611be4ed519389a4cb6d0215,
,,,,,,,0,303,303,122,1,X,1, , ,8,,1500,1.5,,001,2021-08-17_17h38.42.326,natb3,2021.2.3,Linux x86_64,60.12506013,61184fd3f123161339a9fc2f,6107d0959f7c4c3641818b95,611be4ed519389a4cb6d0215,
,,,,space,0.4623,,0,304,304,150,1,T, , , , ,space,2500,2.5,,001,2021-08-17_17h38.42.326,natb3,2021.2.3,Linux x86_64,60.12506013,61184fd3f123161339a9fc2f,6107d0959f7c4c3641818b95,611be4ed519389a4cb6d0215,
,,,,,,,0,305,305,18,1,X, ,2,5,8,,2500,2.5,,001,2021-08-17_17h38.42.326,natb3,2021.2.3,Linux x86_64,60.12506013,61184fd3f123161339a9fc2f,6107d0959f7c4c3641818b95,611be4ed519389a4cb6d0215,
,,,,,,,0,306,306,107,1,X,9,3, ,2,,2000,2,,001,2021-08-17_17h38.42.326,natb3,2021.2.3,Linux x86_64,60.12506013,61184fd3f123161339a9fc2f,6107d0959f7c4c3641818b95,611be4ed519389a4cb6d0215,
,,,,space,0.476,,0,307,307,217,1,T, , , , ,space,2500,2.5,,001,2021-08-17_17h38.42.326,natb3,2021.2.3,Linux x86_64,60.12506013,61184fd3f123161339a9fc2f,6107d0959f7c4c3641818b95,611be4ed519389a4cb6d0215,
,,,,space,0.4171,,0,308,308,178,1,Q, , , , ,space,1500,1.5,,001,2021-08-17_17h38.42.326,natb3,2021.2.3,Linux x86_64,60.12506013,61184fd3f123161339a9fc2f,6107d0959f7c4c3641818b95,611be4ed519389a4cb6d0215,
,,,,space,0.4306,,0,309,309,251,1,B, , , , ,space,1500,1.5,,001,2021-08-17_17h38.42.326,natb3,2021.2.3,Linux x86_64,60.12506013,61184fd3f123161339a9fc2f,6107d0959f7c4c3641818b95,611be4ed519389a4cb6d0215,
,,,,space,0.4818,,0,310,310,142,1,N, , , , ,space,2500,2.5,,001,2021-08-17_17h38.42.326,natb3,2021.2.3,Linux x86_64,60.12506013,61184fd3f123161339a9fc2f,6107d0959f7c4c3641818b95,611be4ed519389a4cb6d0215,
,,,,space,0.4164,,0,311,311,256,1,Q, , , , ,space,2000,2,,001,2021-08-17_17h38.42.326,natb3,2021.2.3,Linux x86_64,60.12506013,61184fd3f123161339a9fc2f,6107d0959f7c4c3641818b95,611be4ed519389a4cb6d0215,
,,,,space,0.7671,,0,312,312,321,1,N, , , , ,space,2000,2,,001,2021-08-17_17h38.42.326,natb3,2021.2.3,Linux x86_64,60.12506013,61184fd3f123161339a9fc2f,6107d0959f7c4c3641818b95,611be4ed519389a4cb6d0215,
,,,,,,,0,313,313,33,1,X, , , , ,,1500,1.5,,001,2021-08-17_17h38.42.326,natb3,2021.2.3,Linux x86_64,60.12506013,61184fd3f123161339a9fc2f,6107d0959f7c4c3641818b95,611be4ed519389a4cb6d0215,
,,,,space,0.3992,,0,314,314,310,1,J, , , , ,space,2500,2.5,,001,2021-08-17_17h38.42.326,natb3,2021.2.3,Linux x86_64,60.12506013,61184fd3f123161339a9fc2f,6107d0959f7c4c3641818b95,611be4ed519389a4cb6d0215,
,,,,space,0.6948,,0,315,315,132,1,H, , , , ,space,2500,2.5,,001,2021-08-17_17h38.42.326,natb3,2021.2.3,Linux x86_64,60.12506013,61184fd3f123161339a9fc2f,6107d0959f7c4c3641818b95,611be4ed519389a4cb6d0215,
,,,,,,,0,316,316,74,1,X, ,4,3,2,,1500,1.5,,001,2021-08-17_17h38.42.326,natb3,2021.2.3,Linux x86_64,60.12506013,61184fd3f123161339a9fc2f,6107d0959f7c4c3641818b95,611be4ed519389a4cb6d0215,
,,,,space,0.7432,,0,317,317,249,1,C, , , , ,space,2000,2,,001,2021-08-17_17h38.42.326,natb3,2021.2.3,Linux x86_64,60.12506013,61184fd3f123161339a9fc2f,6107d0959f7c4c3641818b95,611be4ed519389a4cb6d0215,
,,,,space,0.8475,,0,318,318,118,1,X, , , , ,,2000,2,,001,2021-08-17_17h38.42.326,natb3,2021.2.3,Linux x86_64,60.12506013,61184fd3f123161339a9fc2f,6107d0959f7c4c3641818b95,611be4ed519389a4cb6d0215,
,,,,,,,0,319,319,147,1,E, , , , ,space,2000,2,,001,2021-08-17_17h38.42.326,natb3,2021.2.3,Linux x86_64,60.12506013,61184fd3f123161339a9fc2f,6107d0959f7c4c3641818b95,611be4ed519389a4cb6d0215,
,,,,,,,0,320,320,55,1,H, , , , ,space,2500,2.5,,001,2021-08-17_17h38.42.326,natb3,2021.2.3,Linux x86_64,60.12506013,61184fd3f123161339a9fc2f,6107d0959f7c4c3641818b95,611be4ed519389a4cb6d0215,
,,,,space,0.4801,,0,321,321,110,1,I, , , , ,space,1500,1.5,,001,2021-08-17_17h38.42.326,natb3,2021.2.3,Linux x86_64,60.12506013,61184fd3f123161339a9fc2f,6107d0959f7c4c3641818b95,611be4ed519389a4cb6d0215,
,,,,space,0.3784,,0,322,322,2,1,E, , , , ,space,2500,2.5,,001,2021-08-17_17h38.42.326,natb3,2021.2.3,Linux x86_64,60.12506013,61184fd3f123161339a9fc2f,6107d0959f7c4c3641818b95,611be4ed519389a4cb6d0215,
,,,,space,0.4142,,0,323,323,315,1,X, , , , ,,2500,2.5,,001,2021-08-17_17h38.42.326,natb3,2021.2.3,Linux x86_64,60.12506013,61184fd3f123161339a9fc2f,6107d0959f7c4c3641818b95,611be4ed519389a4cb6d0215,
,,,,space,0.4555,,0,324,324,297,1,U, , , , ,space,2000,2,,001,2021-08-17_17h38.42.326,natb3,2021.2.3,Linux x86_64,60.12506013,61184fd3f123161339a9fc2f,6107d0959f7c4c3641818b95,611be4ed519389a4cb6d0215,
,,,,,,,0,325,325,245,1,K, , , , ,space,2000,2,,001,2021-08-17_17h38.42.326,natb3,2021.2.3,Linux x86_64,60.12506013,61184fd3f123161339a9fc2f,6107d0959f7c4c3641818b95,611be4ed519389a4cb6d0215,
,,,,space,0.3695,,0,326,326,279,1,K, , , , ,space,2500,2.5,,001,2021-08-17_17h38.42.326,natb3,2021.2.3,Linux x86_64,60.12506013,61184fd3f123161339a9fc2f,6107d0959f7c4c3641818b95,611be4ed519389a4cb6d0215,
,,,,,,,0,327,327,228,1,Y, , , , ,space,2000,2,,001,2021-08-17_17h38.42.326,natb3,2021.2.3,Linux x86_64,60.12506013,61184fd3f123161339a9fc2f,6107d0959f7c4c3641818b95,611be4ed519389a4cb6d0215,
,,,,,,,0,328,328,162,1,X,1,6, ,2,,1500,1.5,,001,2021-08-17_17h38.42.326,natb3,2021.2.3,Linux x86_64,60.12506013,61184fd3f123161339a9fc2f,6107d0959f7c4c3641818b95,611be4ed519389a4cb6d0215,
,,,,,,,0,329,329,271,1,X, , , , ,,2500,2.5,,001,2021-08-17_17h38.42.326,natb3,2021.2.3,Linux x86_64,60.12506013,61184fd3f123161339a9fc2f,6107d0959f7c4c3641818b95,611be4ed519389a4cb6d0215,
,,,,,,,0,330,330,106,1,T, , , , ,space,1500,1.5,,001,2021-08-17_17h38.42.326,natb3,2021.2.3,Linux x86_64,60.12506013,61184fd3f123161339a9fc2f,6107d0959f7c4c3641818b95,611be4ed519389a4cb6d0215,
,,,,,,,0,331,331,97,1,B, , , , ,space,2500,2.5,,001,2021-08-17_17h38.42.326,natb3,2021.2.3,Linux x86_64,60.12506013,61184fd3f123161339a9fc2f,6107d0959f7c4c3641818b95,611be4ed519389a4cb6d0215,
,,,,space,0.3818,,0,332,332,272,1,D, , , , ,space,2000,2,,001,2021-08-17_17h38.42.326,natb3,2021.2.3,Linux x86_64,60.12506013,61184fd3f123161339a9fc2f,6107d0959f7c4c3641818b95,611be4ed519389a4cb6d0215,
,,,,,,,0,333,333,244,1,J, , , , ,space,1500,1.5,,001,2021-08-17_17h38.42.326,natb3,2021.2.3,Linux x86_64,60.12506013,61184fd3f123161339a9fc2f,6107d0959f7c4c3641818b95,611be4ed519389a4cb6d0215,
,,,,space,0.3307,,0,334,334,28,1,V, , , , ,space,1500,1.5,,001,2021-08-17_17h38.42.326,natb3,2021.2.3,Linux x86_64,60.12506013,61184fd3f123161339a9fc2f,6107d0959f7c4c3641818b95,611be4ed519389a4cb6d0215,
,,,,space,0.3671,,0,335,335,260,1,R, , , , ,space,2000,2,,001,2021-08-17_17h38.42.326,natb3,2021.2.3,Linux x86_64,60.12506013,61184fd3f123161339a9fc2f,6107d0959f7c4c3641818b95,611be4ed519389a4cb6d0215,
