key_resp_2.keys,key_resp_2.rt,key_resp_3.keys,key_resp_3.rt,key_resp.keys,key_resp.rt,key_resp_4.keys,trials.thisRepN,trials.thisTrialN,trials.thisN,trials.thisIndex,trials.ran,stimulus,distractor1,distractor2,distractor3,distractor4,CorrAns,isi_duration,isi_dur_in_seconds,participant,session,date,expName,psychopyVersion,OS,frameRate,PROLIFIC_PID,STUDY_ID,SESSION_ID,key_resp_4.rt
return,19.8734,space,11.0595,space,0.9138,,0,0,0,100,1,M, , , , ,space,2000,2,,001,2021-08-19_16h54.01.913,natb3,2021.2.3,MacIntel,60.14675809,6111582fe881af862128feb5,611e07ecdcc96256ae8d5b80,611e7d56d5f319c71d62757a,
,,,,space,0.3686,,0,1,1,227,1,T, , , , ,space,1500,1.5,,001,2021-08-19_16h54.01.913,natb3,2021.2.3,MacIntel,60.14675809,6111582fe881af862128feb5,611e07ecdcc96256ae8d5b80,611e7d56d5f319c71d62757a,
,,,,space,0.3184,,0,2,2,115,1,R, , , , ,space,1500,1.5,,001,2021-08-19_16h54.01.913,natb3,2021.2.3,MacIntel,60.14675809,6111582fe881af862128feb5,611e07ecdcc96256ae8d5b80,611e7d56d5f319c71d62757a,
,,,,,,,0,3,3,27,1,X,5, ,1,3,,1500,1.5,,001,2021-08-19_16h54.01.913,natb3,2021.2.3,MacIntel,60.14675809,6111582fe881af862128feb5,611e07ecdcc96256ae8d5b80,611e7d56d5f319c71d62757a,
,,,,space,0.3636,,0,4,4,159,1,S, , , , ,space,2500,2.5,,001,2021-08-19_16h54.01.913,natb3,2021.2.3,MacIntel,60.14675809,6111582fe881af862128feb5,611e07ecdcc96256ae8d5b80,611e7d56d5f319c71d62757a,
,,,,space,0.3671,,0,5,5,240,1,F, , , , ,space,2500,2.5,,001,2021-08-19_16h54.01.913,natb3,2021.2.3,MacIntel,60.14675809,6111582fe881af862128feb5,611e07ecdcc96256ae8d5b80,611e7d56d5f319c71d62757a,
,,,,space,0.3504,,0,6,6,155,1,O, , , , ,space,1500,1.5,,001,2021-08-19_16h54.01.913,natb3,2021.2.3,MacIntel,60.14675809,6111582fe881af862128feb5,611e07ecdcc96256ae8d5b80,611e7d56d5f319c71d62757a,
,,,,space,0.3841,,0,7,7,196,1,F, , , , ,space,1500,1.5,,001,2021-08-19_16h54.01.913,natb3,2021.2.3,MacIntel,60.14675809,6111582fe881af862128feb5,611e07ecdcc96256ae8d5b80,611e7d56d5f319c71d62757a,
,,,,space,0.3833,,0,8,8,173,1,V, , , , ,space,1500,1.5,,001,2021-08-19_16h54.01.913,natb3,2021.2.3,MacIntel,60.14675809,6111582fe881af862128feb5,611e07ecdcc96256ae8d5b80,611e7d56d5f319c71d62757a,
,,,,space,0.4021,,0,9,9,161,1,F, , , , ,space,1500,1.5,,001,2021-08-19_16h54.01.913,natb3,2021.2.3,MacIntel,60.14675809,6111582fe881af862128feb5,611e07ecdcc96256ae8d5b80,611e7d56d5f319c71d62757a,
,,,,space,0.3482,,0,10,10,304,1,S, , , , ,space,2000,2,,001,2021-08-19_16h54.01.913,natb3,2021.2.3,MacIntel,60.14675809,6111582fe881af862128feb5,611e07ecdcc96256ae8d5b80,611e7d56d5f319c71d62757a,
,,,,space,0.3057,,0,11,11,293,1,R, , , , ,space,2500,2.5,,001,2021-08-19_16h54.01.913,natb3,2021.2.3,MacIntel,60.14675809,6111582fe881af862128feb5,611e07ecdcc96256ae8d5b80,611e7d56d5f319c71d62757a,
,,,,space,0.4058,,0,12,12,188,1,I, , , , ,space,2500,2.5,,001,2021-08-19_16h54.01.913,natb3,2021.2.3,MacIntel,60.14675809,6111582fe881af862128feb5,611e07ecdcc96256ae8d5b80,611e7d56d5f319c71d62757a,
,,,,space,0.3174,,0,13,13,321,1,N, , , , ,space,2000,2,,001,2021-08-19_16h54.01.913,natb3,2021.2.3,MacIntel,60.14675809,6111582fe881af862128feb5,611e07ecdcc96256ae8d5b80,611e7d56d5f319c71d62757a,
,,,,,,,0,14,14,203,1,X, , , , ,,2500,2.5,,001,2021-08-19_16h54.01.913,natb3,2021.2.3,MacIntel,60.14675809,6111582fe881af862128feb5,611e07ecdcc96256ae8d5b80,611e7d56d5f319c71d62757a,
,,,,space,0.3332,,0,15,15,278,1,J, , , , ,space,2000,2,,001,2021-08-19_16h54.01.913,natb3,2021.2.3,MacIntel,60.14675809,6111582fe881af862128feb5,611e07ecdcc96256ae8d5b80,611e7d56d5f319c71d62757a,
,,,,space,0.4026,,0,16,16,186,1,U, , , , ,space,2500,2.5,,001,2021-08-19_16h54.01.913,natb3,2021.2.3,MacIntel,60.14675809,6111582fe881af862128feb5,611e07ecdcc96256ae8d5b80,611e7d56d5f319c71d62757a,
,,,,space,0.3607,,0,17,17,208,1,B, , , , ,space,1500,1.5,,001,2021-08-19_16h54.01.913,natb3,2021.2.3,MacIntel,60.14675809,6111582fe881af862128feb5,611e07ecdcc96256ae8d5b80,611e7d56d5f319c71d62757a,
,,,,space,0.3353,,0,18,18,276,1,H, , , , ,space,2000,2,,001,2021-08-19_16h54.01.913,natb3,2021.2.3,MacIntel,60.14675809,6111582fe881af862128feb5,611e07ecdcc96256ae8d5b80,611e7d56d5f319c71d62757a,
,,,,space,0.3852,,0,19,19,16,1,D, , , , ,space,1500,1.5,,001,2021-08-19_16h54.01.913,natb3,2021.2.3,MacIntel,60.14675809,6111582fe881af862128feb5,611e07ecdcc96256ae8d5b80,611e7d56d5f319c71d62757a,
,,,,space,0.385,,0,20,20,253,1,N, , , , ,space,2500,2.5,,001,2021-08-19_16h54.01.913,natb3,2021.2.3,MacIntel,60.14675809,6111582fe881af862128feb5,611e07ecdcc96256ae8d5b80,611e7d56d5f319c71d62757a,
,,,,space,0.335,,0,21,21,79,1,P, , , , ,space,2000,2,,001,2021-08-19_16h54.01.913,natb3,2021.2.3,MacIntel,60.14675809,6111582fe881af862128feb5,611e07ecdcc96256ae8d5b80,611e7d56d5f319c71d62757a,
,,,,space,0.3852,,0,22,22,40,1,T, , , , ,space,1500,1.5,,001,2021-08-19_16h54.01.913,natb3,2021.2.3,MacIntel,60.14675809,6111582fe881af862128feb5,611e07ecdcc96256ae8d5b80,611e7d56d5f319c71d62757a,
,,,,space,0.3159,,0,23,23,281,1,Z, , , , ,space,1500,1.5,,001,2021-08-19_16h54.01.913,natb3,2021.2.3,MacIntel,60.14675809,6111582fe881af862128feb5,611e07ecdcc96256ae8d5b80,611e7d56d5f319c71d62757a,
,,,,space,0.3984,,0,24,24,206,1,V, , , , ,space,2000,2,,001,2021-08-19_16h54.01.913,natb3,2021.2.3,MacIntel,60.14675809,6111582fe881af862128feb5,611e07ecdcc96256ae8d5b80,611e7d56d5f319c71d62757a,
,,,,space,0.3193,,0,25,25,152,1,U, , , , ,space,2000,2,,001,2021-08-19_16h54.01.913,natb3,2021.2.3,MacIntel,60.14675809,6111582fe881af862128feb5,611e07ecdcc96256ae8d5b80,611e7d56d5f319c71d62757a,
,,,,,,,0,26,26,122,1,X,1, , ,8,,1500,1.5,,001,2021-08-19_16h54.01.913,natb3,2021.2.3,MacIntel,60.14675809,6111582fe881af862128feb5,611e07ecdcc96256ae8d5b80,611e7d56d5f319c71d62757a,
,,,,space,0.4316,,0,27,27,146,1,W, , , , ,space,1500,1.5,,001,2021-08-19_16h54.01.913,natb3,2021.2.3,MacIntel,60.14675809,6111582fe881af862128feb5,611e07ecdcc96256ae8d5b80,611e7d56d5f319c71d62757a,
,,,,space,0.3178,,0,28,28,72,1,T, , , , ,space,1500,1.5,,001,2021-08-19_16h54.01.913,natb3,2021.2.3,MacIntel,60.14675809,6111582fe881af862128feb5,611e07ecdcc96256ae8d5b80,611e7d56d5f319c71d62757a,
,,,,space,0.3334,,0,29,29,319,1,V, , , , ,space,2000,2,,001,2021-08-19_16h54.01.913,natb3,2021.2.3,MacIntel,60.14675809,6111582fe881af862128feb5,611e07ecdcc96256ae8d5b80,611e7d56d5f319c71d62757a,
,,,,space,0.3328,,0,30,30,290,1,W, , , , ,space,1500,1.5,,001,2021-08-19_16h54.01.913,natb3,2021.2.3,MacIntel,60.14675809,6111582fe881af862128feb5,611e07ecdcc96256ae8d5b80,611e7d56d5f319c71d62757a,
,,,,space,0.3197,,0,31,31,73,1,Y, , , , ,space,2000,2,,001,2021-08-19_16h54.01.913,natb3,2021.2.3,MacIntel,60.14675809,6111582fe881af862128feb5,611e07ecdcc96256ae8d5b80,611e7d56d5f319c71d62757a,
,,,,space,0.3176,,0,32,32,36,1,W, , , , ,space,2000,2,,001,2021-08-19_16h54.01.913,natb3,2021.2.3,MacIntel,60.14675809,6111582fe881af862128feb5,611e07ecdcc96256ae8d5b80,611e7d56d5f319c71d62757a,
,,,,,,,0,33,33,166,1,X, , , , ,,2000,2,,001,2021-08-19_16h54.01.913,natb3,2021.2.3,MacIntel,60.14675809,6111582fe881af862128feb5,611e07ecdcc96256ae8d5b80,611e7d56d5f319c71d62757a,
,,,,space,0.3781,,0,34,34,266,1,O, , , , ,space,1500,1.5,,001,2021-08-19_16h54.01.913,natb3,2021.2.3,MacIntel,60.14675809,6111582fe881af862128feb5,611e07ecdcc96256ae8d5b80,611e7d56d5f319c71d62757a,
,,,,space,0.3347,,0,35,35,222,1,O, , , , ,space,2000,2,,001,2021-08-19_16h54.01.913,natb3,2021.2.3,MacIntel,60.14675809,6111582fe881af862128feb5,611e07ecdcc96256ae8d5b80,611e7d56d5f319c71d62757a,
,,,,space,0.3733,,0,36,36,182,1,X, , , , ,,1500,1.5,,001,2021-08-19_16h54.01.913,natb3,2021.2.3,MacIntel,60.14675809,6111582fe881af862128feb5,611e07ecdcc96256ae8d5b80,611e7d56d5f319c71d62757a,
,,,,space,0.3654,,0,37,37,38,1,R, , , , ,space,2500,2.5,,001,2021-08-19_16h54.01.913,natb3,2021.2.3,MacIntel,60.14675809,6111582fe881af862128feb5,611e07ecdcc96256ae8d5b80,611e7d56d5f319c71d62757a,
,,,,space,0.3994,,0,38,38,254,1,M, , , , ,space,1500,1.5,,001,2021-08-19_16h54.01.913,natb3,2021.2.3,MacIntel,60.14675809,6111582fe881af862128feb5,611e07ecdcc96256ae8d5b80,611e7d56d5f319c71d62757a,
,,,,space,0.366,,0,39,39,234,1,P, , , , ,space,2000,2,,001,2021-08-19_16h54.01.913,natb3,2021.2.3,MacIntel,60.14675809,6111582fe881af862128feb5,611e07ecdcc96256ae8d5b80,611e7d56d5f319c71d62757a,
,,,,space,0.3376,,0,40,40,212,1,Q, , , , ,space,2500,2.5,,001,2021-08-19_16h54.01.913,natb3,2021.2.3,MacIntel,60.14675809,6111582fe881af862128feb5,611e07ecdcc96256ae8d5b80,611e7d56d5f319c71d62757a,
,,,,space,0.3674,,0,41,41,52,1,F, , , , ,space,1500,1.5,,001,2021-08-19_16h54.01.913,natb3,2021.2.3,MacIntel,60.14675809,6111582fe881af862128feb5,611e07ecdcc96256ae8d5b80,611e7d56d5f319c71d62757a,
,,,,space,0.3527,,0,42,42,68,1,W, , , , ,space,2500,2.5,,001,2021-08-19_16h54.01.913,natb3,2021.2.3,MacIntel,60.14675809,6111582fe881af862128feb5,611e07ecdcc96256ae8d5b80,611e7d56d5f319c71d62757a,
,,,,,,,0,43,43,43,1,X, ,6, ,2,,2500,2.5,,001,2021-08-19_16h54.01.913,natb3,2021.2.3,MacIntel,60.14675809,6111582fe881af862128feb5,611e07ecdcc96256ae8d5b80,611e7d56d5f319c71d62757a,
,,,,space,0.3481,,0,44,44,279,1,K, , , , ,space,2500,2.5,,001,2021-08-19_16h54.01.913,natb3,2021.2.3,MacIntel,60.14675809,6111582fe881af862128feb5,611e07ecdcc96256ae8d5b80,611e7d56d5f319c71d62757a,
,,,,space,0.3332,,0,45,45,220,1,U, , , , ,space,2500,2.5,,001,2021-08-19_16h54.01.913,natb3,2021.2.3,MacIntel,60.14675809,6111582fe881af862128feb5,611e07ecdcc96256ae8d5b80,611e7d56d5f319c71d62757a,
,,,,,,,0,46,46,51,1,X,7,5,8, ,,1500,1.5,,001,2021-08-19_16h54.01.913,natb3,2021.2.3,MacIntel,60.14675809,6111582fe881af862128feb5,611e07ecdcc96256ae8d5b80,611e7d56d5f319c71d62757a,
,,,,space,0.398,,0,47,47,134,1,J, , , , ,space,2000,2,,001,2021-08-19_16h54.01.913,natb3,2021.2.3,MacIntel,60.14675809,6111582fe881af862128feb5,611e07ecdcc96256ae8d5b80,611e7d56d5f319c71d62757a,
,,,,space,0.3832,,0,48,48,112,1,Q, , , , ,space,2500,2.5,,001,2021-08-19_16h54.01.913,natb3,2021.2.3,MacIntel,60.14675809,6111582fe881af862128feb5,611e07ecdcc96256ae8d5b80,611e7d56d5f319c71d62757a,
,,,,space,0.3349,,0,49,49,292,1,E, , , , ,space,2000,2,,001,2021-08-19_16h54.01.913,natb3,2021.2.3,MacIntel,60.14675809,6111582fe881af862128feb5,611e07ecdcc96256ae8d5b80,611e7d56d5f319c71d62757a,
,,,,space,0.3366,,0,50,50,269,1,A, , , , ,space,2500,2.5,,001,2021-08-19_16h54.01.913,natb3,2021.2.3,MacIntel,60.14675809,6111582fe881af862128feb5,611e07ecdcc96256ae8d5b80,611e7d56d5f319c71d62757a,
,,,,space,0.3837,,0,51,51,301,1,P, , , , ,space,1500,1.5,,001,2021-08-19_16h54.01.913,natb3,2021.2.3,MacIntel,60.14675809,6111582fe881af862128feb5,611e07ecdcc96256ae8d5b80,611e7d56d5f319c71d62757a,
,,,,space,0.318,,0,52,52,237,1,S, , , , ,space,1500,1.5,,001,2021-08-19_16h54.01.913,natb3,2021.2.3,MacIntel,60.14675809,6111582fe881af862128feb5,611e07ecdcc96256ae8d5b80,611e7d56d5f319c71d62757a,
,,,,space,0.3281,,0,53,53,74,1,X, ,4,3,2,,1500,1.5,,001,2021-08-19_16h54.01.913,natb3,2021.2.3,MacIntel,60.14675809,6111582fe881af862128feb5,611e07ecdcc96256ae8d5b80,611e7d56d5f319c71d62757a,
,,,,space,0.4044,,0,54,54,78,1,X, , , , ,,2000,2,,001,2021-08-19_16h54.01.913,natb3,2021.2.3,MacIntel,60.14675809,6111582fe881af862128feb5,611e07ecdcc96256ae8d5b80,611e7d56d5f319c71d62757a,
,,,,space,0.4508,,0,55,55,156,1,P, , , , ,space,1500,1.5,,001,2021-08-19_16h54.01.913,natb3,2021.2.3,MacIntel,60.14675809,6111582fe881af862128feb5,611e07ecdcc96256ae8d5b80,611e7d56d5f319c71d62757a,
,,,,space,0.3836,,0,56,56,176,1,N, , , , ,space,1500,1.5,,001,2021-08-19_16h54.01.913,natb3,2021.2.3,MacIntel,60.14675809,6111582fe881af862128feb5,611e07ecdcc96256ae8d5b80,611e7d56d5f319c71d62757a,
,,,,space,0.4369,,0,57,57,265,1,I, , , , ,space,2000,2,,001,2021-08-19_16h54.01.913,natb3,2021.2.3,MacIntel,60.14675809,6111582fe881af862128feb5,611e07ecdcc96256ae8d5b80,611e7d56d5f319c71d62757a,
,,,,space,0.3693,,0,58,58,75,1,U, , , , ,space,1500,1.5,,001,2021-08-19_16h54.01.913,natb3,2021.2.3,MacIntel,60.14675809,6111582fe881af862128feb5,611e07ecdcc96256ae8d5b80,611e7d56d5f319c71d62757a,
,,,,,,,0,59,59,46,1,X, , , , ,,2000,2,,001,2021-08-19_16h54.01.913,natb3,2021.2.3,MacIntel,60.14675809,6111582fe881af862128feb5,611e07ecdcc96256ae8d5b80,611e7d56d5f319c71d62757a,
,,,,,,,0,60,60,236,1,X,3, ,4,7,,2500,2.5,,001,2021-08-19_16h54.01.913,natb3,2021.2.3,MacIntel,60.14675809,6111582fe881af862128feb5,611e07ecdcc96256ae8d5b80,611e7d56d5f319c71d62757a,
,,,,,,,0,61,61,295,1,X,8,7,5, ,,2500,2.5,,001,2021-08-19_16h54.01.913,natb3,2021.2.3,MacIntel,60.14675809,6111582fe881af862128feb5,611e07ecdcc96256ae8d5b80,611e7d56d5f319c71d62757a,
,,,,space,0.4629,,0,62,62,94,1,C, , , , ,space,2000,2,,001,2021-08-19_16h54.01.913,natb3,2021.2.3,MacIntel,60.14675809,6111582fe881af862128feb5,611e07ecdcc96256ae8d5b80,611e7d56d5f319c71d62757a,
,,,,space,0.4515,,0,63,63,333,1,I, , , , ,space,1500,1.5,,001,2021-08-19_16h54.01.913,natb3,2021.2.3,MacIntel,60.14675809,6111582fe881af862128feb5,611e07ecdcc96256ae8d5b80,611e7d56d5f319c71d62757a,
,,,,,,,0,64,64,315,1,X, , , , ,,2500,2.5,,001,2021-08-19_16h54.01.913,natb3,2021.2.3,MacIntel,60.14675809,6111582fe881af862128feb5,611e07ecdcc96256ae8d5b80,611e7d56d5f319c71d62757a,
,,,,space,0.5325,,0,65,65,67,1,Q, , , , ,space,2000,2,,001,2021-08-19_16h54.01.913,natb3,2021.2.3,MacIntel,60.14675809,6111582fe881af862128feb5,611e07ecdcc96256ae8d5b80,611e7d56d5f319c71d62757a,
,,,,,,,0,66,66,168,1,X, , , , ,,2500,2.5,,001,2021-08-19_16h54.01.913,natb3,2021.2.3,MacIntel,60.14675809,6111582fe881af862128feb5,611e07ecdcc96256ae8d5b80,611e7d56d5f319c71d62757a,
,,,,space,0.4501,,0,67,67,97,1,B, , , , ,space,2500,2.5,,001,2021-08-19_16h54.01.913,natb3,2021.2.3,MacIntel,60.14675809,6111582fe881af862128feb5,611e07ecdcc96256ae8d5b80,611e7d56d5f319c71d62757a,
,,,,space,0.621,,0,68,68,136,1,Z, , , , ,space,2500,2.5,,001,2021-08-19_16h54.01.913,natb3,2021.2.3,MacIntel,60.14675809,6111582fe881af862128feb5,611e07ecdcc96256ae8d5b80,611e7d56d5f319c71d62757a,
,,,,space,0.4003,,0,69,69,13,1,A, , , , ,space,2000,2,,001,2021-08-19_16h54.01.913,natb3,2021.2.3,MacIntel,60.14675809,6111582fe881af862128feb5,611e07ecdcc96256ae8d5b80,611e7d56d5f319c71d62757a,
,,,,space,0.3509,,0,70,70,309,1,H, , , , ,space,2500,2.5,,001,2021-08-19_16h54.01.913,natb3,2021.2.3,MacIntel,60.14675809,6111582fe881af862128feb5,611e07ecdcc96256ae8d5b80,611e7d56d5f319c71d62757a,
,,,,,,,0,71,71,4,1,X, , , , ,,2000,2,,001,2021-08-19_16h54.01.913,natb3,2021.2.3,MacIntel,60.14675809,6111582fe881af862128feb5,611e07ecdcc96256ae8d5b80,611e7d56d5f319c71d62757a,
,,,,space,0.5341,,0,72,72,151,1,Y, , , , ,space,2500,2.5,,001,2021-08-19_16h54.01.913,natb3,2021.2.3,MacIntel,60.14675809,6111582fe881af862128feb5,611e07ecdcc96256ae8d5b80,611e7d56d5f319c71d62757a,
,,,,,,,0,73,73,277,1,X,8,5, ,2,,2000,2,,001,2021-08-19_16h54.01.913,natb3,2021.2.3,MacIntel,60.14675809,6111582fe881af862128feb5,611e07ecdcc96256ae8d5b80,611e7d56d5f319c71d62757a,
,,,,space,0.4974,,0,74,74,324,1,Q, , , , ,space,2000,2,,001,2021-08-19_16h54.01.913,natb3,2021.2.3,MacIntel,60.14675809,6111582fe881af862128feb5,611e07ecdcc96256ae8d5b80,611e7d56d5f319c71d62757a,
,,,,space,0.4009,,0,75,75,199,1,J, , , , ,space,2500,2.5,,001,2021-08-19_16h54.01.913,natb3,2021.2.3,MacIntel,60.14675809,6111582fe881af862128feb5,611e07ecdcc96256ae8d5b80,611e7d56d5f319c71d62757a,
,,,,space,0.4818,,0,76,76,2,1,E, , , , ,space,2500,2.5,,001,2021-08-19_16h54.01.913,natb3,2021.2.3,MacIntel,60.14675809,6111582fe881af862128feb5,611e07ecdcc96256ae8d5b80,611e7d56d5f319c71d62757a,
,,,,space,0.4358,,0,77,77,242,1,H, , , , ,space,2500,2.5,,001,2021-08-19_16h54.01.913,natb3,2021.2.3,MacIntel,60.14675809,6111582fe881af862128feb5,611e07ecdcc96256ae8d5b80,611e7d56d5f319c71d62757a,
,,,,space,0.3984,,0,78,78,22,1,K, , , , ,space,2000,2,,001,2021-08-19_16h54.01.913,natb3,2021.2.3,MacIntel,60.14675809,6111582fe881af862128feb5,611e07ecdcc96256ae8d5b80,611e7d56d5f319c71d62757a,
,,,,space,0.4031,,0,79,79,204,1,Z, , , , ,space,2000,2,,001,2021-08-19_16h54.01.913,natb3,2021.2.3,MacIntel,60.14675809,6111582fe881af862128feb5,611e07ecdcc96256ae8d5b80,611e7d56d5f319c71d62757a,
,,,,space,0.3696,,0,80,80,144,1,Q, , , , ,space,2500,2.5,,001,2021-08-19_16h54.01.913,natb3,2021.2.3,MacIntel,60.14675809,6111582fe881af862128feb5,611e07ecdcc96256ae8d5b80,611e7d56d5f319c71d62757a,
,,,,space,0.3659,,0,81,81,105,1,R, , , , ,space,2500,2.5,,001,2021-08-19_16h54.01.913,natb3,2021.2.3,MacIntel,60.14675809,6111582fe881af862128feb5,611e07ecdcc96256ae8d5b80,611e7d56d5f319c71d62757a,
,,,,,,,0,82,82,35,1,X, , , , ,,2500,2.5,,001,2021-08-19_16h54.01.913,natb3,2021.2.3,MacIntel,60.14675809,6111582fe881af862128feb5,611e07ecdcc96256ae8d5b80,611e7d56d5f319c71d62757a,
,,,,space,0.4337,,0,83,83,14,1,S, , , , ,space,2500,2.5,,001,2021-08-19_16h54.01.913,natb3,2021.2.3,MacIntel,60.14675809,6111582fe881af862128feb5,611e07ecdcc96256ae8d5b80,611e7d56d5f319c71d62757a,
,,,,space,0.4014,,0,84,84,163,1,G, , , , ,space,2500,2.5,,001,2021-08-19_16h54.01.913,natb3,2021.2.3,MacIntel,60.14675809,6111582fe881af862128feb5,611e07ecdcc96256ae8d5b80,611e7d56d5f319c71d62757a,
,,,,space,0.3841,,0,85,85,217,1,T, , , , ,space,2500,2.5,,001,2021-08-19_16h54.01.913,natb3,2021.2.3,MacIntel,60.14675809,6111582fe881af862128feb5,611e07ecdcc96256ae8d5b80,611e7d56d5f319c71d62757a,
,,,,space,0.4322,,0,86,86,19,1,G, , , , ,space,1500,1.5,,001,2021-08-19_16h54.01.913,natb3,2021.2.3,MacIntel,60.14675809,6111582fe881af862128feb5,611e07ecdcc96256ae8d5b80,611e7d56d5f319c71d62757a,
,,,,space,0.3674,,0,87,87,165,1,J, , , , ,space,2500,2.5,,001,2021-08-19_16h54.01.913,natb3,2021.2.3,MacIntel,60.14675809,6111582fe881af862128feb5,611e07ecdcc96256ae8d5b80,611e7d56d5f319c71d62757a,
,,,,space,0.4051,,0,88,88,334,1,O, , , , ,space,1500,1.5,,001,2021-08-19_16h54.01.913,natb3,2021.2.3,MacIntel,60.14675809,6111582fe881af862128feb5,611e07ecdcc96256ae8d5b80,611e7d56d5f319c71d62757a,
,,,,space,0.3645,,0,89,89,169,1,L, , , , ,space,2500,2.5,,001,2021-08-19_16h54.01.913,natb3,2021.2.3,MacIntel,60.14675809,6111582fe881af862128feb5,611e07ecdcc96256ae8d5b80,611e7d56d5f319c71d62757a,
,,,,space,0.4857,,0,90,90,316,1,Z, , , , ,space,1500,1.5,,001,2021-08-19_16h54.01.913,natb3,2021.2.3,MacIntel,60.14675809,6111582fe881af862128feb5,611e07ecdcc96256ae8d5b80,611e7d56d5f319c71d62757a,
,,,,,,,0,91,91,89,1,X,3, , , ,,2000,2,,001,2021-08-19_16h54.01.913,natb3,2021.2.3,MacIntel,60.14675809,6111582fe881af862128feb5,611e07ecdcc96256ae8d5b80,611e7d56d5f319c71d62757a,
,,,,space,0.4376,,0,92,92,17,1,F, , , , ,space,2500,2.5,,001,2021-08-19_16h54.01.913,natb3,2021.2.3,MacIntel,60.14675809,6111582fe881af862128feb5,611e07ecdcc96256ae8d5b80,611e7d56d5f319c71d62757a,
,,,,,,,0,93,93,243,1,X, , , , ,,2500,2.5,,001,2021-08-19_16h54.01.913,natb3,2021.2.3,MacIntel,60.14675809,6111582fe881af862128feb5,611e07ecdcc96256ae8d5b80,611e7d56d5f319c71d62757a,
,,,,space,0.435,,0,94,94,49,1,S, , , , ,space,1500,1.5,,001,2021-08-19_16h54.01.913,natb3,2021.2.3,MacIntel,60.14675809,6111582fe881af862128feb5,611e07ecdcc96256ae8d5b80,611e7d56d5f319c71d62757a,
,,,,space,0.4339,,0,95,95,12,1,X, , , , ,,1500,1.5,,001,2021-08-19_16h54.01.913,natb3,2021.2.3,MacIntel,60.14675809,6111582fe881af862128feb5,611e07ecdcc96256ae8d5b80,611e7d56d5f319c71d62757a,
,,,,space,0.4116,,0,96,96,221,1,I, , , , ,space,2500,2.5,,001,2021-08-19_16h54.01.913,natb3,2021.2.3,MacIntel,60.14675809,6111582fe881af862128feb5,611e07ecdcc96256ae8d5b80,611e7d56d5f319c71d62757a,
,,,,space,0.4005,,0,97,97,150,1,T, , , , ,space,2500,2.5,,001,2021-08-19_16h54.01.913,natb3,2021.2.3,MacIntel,60.14675809,6111582fe881af862128feb5,611e07ecdcc96256ae8d5b80,611e7d56d5f319c71d62757a,
,,,,space,0.3841,,0,98,98,77,1,O, , , , ,space,2000,2,,001,2021-08-19_16h54.01.913,natb3,2021.2.3,MacIntel,60.14675809,6111582fe881af862128feb5,611e07ecdcc96256ae8d5b80,611e7d56d5f319c71d62757a,
,,,,,,,0,99,99,102,1,X, ,6, , ,,1500,1.5,,001,2021-08-19_16h54.01.913,natb3,2021.2.3,MacIntel,60.14675809,6111582fe881af862128feb5,611e07ecdcc96256ae8d5b80,611e7d56d5f319c71d62757a,
,,,,space,0.5337,,0,100,100,48,1,A, , , , ,space,2500,2.5,,001,2021-08-19_16h54.01.913,natb3,2021.2.3,MacIntel,60.14675809,6111582fe881af862128feb5,611e07ecdcc96256ae8d5b80,611e7d56d5f319c71d62757a,
,,,,space,0.4158,,0,101,101,194,1,D, , , , ,space,2000,2,,001,2021-08-19_16h54.01.913,natb3,2021.2.3,MacIntel,60.14675809,6111582fe881af862128feb5,611e07ecdcc96256ae8d5b80,611e7d56d5f319c71d62757a,
,,,,,,,0,102,102,158,1,X, , , , ,,1500,1.5,,001,2021-08-19_16h54.01.913,natb3,2021.2.3,MacIntel,60.14675809,6111582fe881af862128feb5,611e07ecdcc96256ae8d5b80,611e7d56d5f319c71d62757a,
,,,,space,0.4014,,0,103,103,5,1,T, , , , ,space,2000,2,,001,2021-08-19_16h54.01.913,natb3,2021.2.3,MacIntel,60.14675809,6111582fe881af862128feb5,611e07ecdcc96256ae8d5b80,611e7d56d5f319c71d62757a,
,,,,space,0.4504,,0,104,104,298,1,I, , , , ,space,2000,2,,001,2021-08-19_16h54.01.913,natb3,2021.2.3,MacIntel,60.14675809,6111582fe881af862128feb5,611e07ecdcc96256ae8d5b80,611e7d56d5f319c71d62757a,
,,,,space,0.4499,,0,105,105,164,1,H, , , , ,space,2500,2.5,,001,2021-08-19_16h54.01.913,natb3,2021.2.3,MacIntel,60.14675809,6111582fe881af862128feb5,611e07ecdcc96256ae8d5b80,611e7d56d5f319c71d62757a,
,,,,,,,0,106,106,171,1,X, , , , ,,1500,1.5,,001,2021-08-19_16h54.01.913,natb3,2021.2.3,MacIntel,60.14675809,6111582fe881af862128feb5,611e07ecdcc96256ae8d5b80,611e7d56d5f319c71d62757a,
,,,,,,,0,107,107,191,1,X,1, ,3,4,,2500,2.5,,001,2021-08-19_16h54.01.913,natb3,2021.2.3,MacIntel,60.14675809,6111582fe881af862128feb5,611e07ecdcc96256ae8d5b80,611e7d56d5f319c71d62757a,
,,,,space,0.4346,,0,108,108,99,1,N, , , , ,space,2500,2.5,,001,2021-08-19_16h54.01.913,natb3,2021.2.3,MacIntel,60.14675809,6111582fe881af862128feb5,611e07ecdcc96256ae8d5b80,611e7d56d5f319c71d62757a,
,,,,space,0.5192,,0,109,109,262,1,Y, , , , ,space,2500,2.5,,001,2021-08-19_16h54.01.913,natb3,2021.2.3,MacIntel,60.14675809,6111582fe881af862128feb5,611e07ecdcc96256ae8d5b80,611e7d56d5f319c71d62757a,
,,,,space,0.4516,,0,110,110,201,1,K, , , , ,space,1500,1.5,,001,2021-08-19_16h54.01.913,natb3,2021.2.3,MacIntel,60.14675809,6111582fe881af862128feb5,611e07ecdcc96256ae8d5b80,611e7d56d5f319c71d62757a,
,,,,space,0.4006,,0,111,111,76,1,I, , , , ,space,2000,2,,001,2021-08-19_16h54.01.913,natb3,2021.2.3,MacIntel,60.14675809,6111582fe881af862128feb5,611e07ecdcc96256ae8d5b80,611e7d56d5f319c71d62757a,
,,,,,,,0,112,112,233,1,X, ,2, ,5,,1500,1.5,,001,2021-08-19_16h54.01.913,natb3,2021.2.3,MacIntel,60.14675809,6111582fe881af862128feb5,611e07ecdcc96256ae8d5b80,611e7d56d5f319c71d62757a,
,,,,,,,0,113,113,268,1,X,6, ,3, ,,2500,2.5,,001,2021-08-19_16h54.01.913,natb3,2021.2.3,MacIntel,60.14675809,6111582fe881af862128feb5,611e07ecdcc96256ae8d5b80,611e7d56d5f319c71d62757a,
,,,,,,,0,114,114,259,1,X,8, , ,3,,2500,2.5,,001,2021-08-19_16h54.01.913,natb3,2021.2.3,MacIntel,60.14675809,6111582fe881af862128feb5,611e07ecdcc96256ae8d5b80,611e7d56d5f319c71d62757a,
,,,,,,,0,115,115,318,1,X, , , , ,,1500,1.5,,001,2021-08-19_16h54.01.913,natb3,2021.2.3,MacIntel,60.14675809,6111582fe881af862128feb5,611e07ecdcc96256ae8d5b80,611e7d56d5f319c71d62757a,
,,,,,,,0,116,116,255,1,X, , , , ,,1500,1.5,,001,2021-08-19_16h54.01.913,natb3,2021.2.3,MacIntel,60.14675809,6111582fe881af862128feb5,611e07ecdcc96256ae8d5b80,611e7d56d5f319c71d62757a,
,,,,space,0.5167,,0,117,117,28,1,V, , , , ,space,1500,1.5,,001,2021-08-19_16h54.01.913,natb3,2021.2.3,MacIntel,60.14675809,6111582fe881af862128feb5,611e07ecdcc96256ae8d5b80,611e7d56d5f319c71d62757a,
,,,,space,0.4189,,0,118,118,55,1,H, , , , ,space,2500,2.5,,001,2021-08-19_16h54.01.913,natb3,2021.2.3,MacIntel,60.14675809,6111582fe881af862128feb5,611e07ecdcc96256ae8d5b80,611e7d56d5f319c71d62757a,
,,,,space,0.3641,,0,119,119,211,1,X, , , , ,,2500,2.5,,001,2021-08-19_16h54.01.913,natb3,2021.2.3,MacIntel,60.14675809,6111582fe881af862128feb5,611e07ecdcc96256ae8d5b80,611e7d56d5f319c71d62757a,
,,,,space,0.4367,,0,120,120,26,1,C, , , , ,space,2000,2,,001,2021-08-19_16h54.01.913,natb3,2021.2.3,MacIntel,60.14675809,6111582fe881af862128feb5,611e07ecdcc96256ae8d5b80,611e7d56d5f319c71d62757a,
,,,,,,,0,121,121,69,1,X, , , , ,,1500,1.5,,001,2021-08-19_16h54.01.913,natb3,2021.2.3,MacIntel,60.14675809,6111582fe881af862128feb5,611e07ecdcc96256ae8d5b80,611e7d56d5f319c71d62757a,
,,,,space,0.4691,,0,122,122,274,1,F, , , , ,space,2000,2,,001,2021-08-19_16h54.01.913,natb3,2021.2.3,MacIntel,60.14675809,6111582fe881af862128feb5,611e07ecdcc96256ae8d5b80,611e7d56d5f319c71d62757a,
,,,,space,0.4821,,0,123,123,90,1,K, , , , ,space,2000,2,,001,2021-08-19_16h54.01.913,natb3,2021.2.3,MacIntel,60.14675809,6111582fe881af862128feb5,611e07ecdcc96256ae8d5b80,611e7d56d5f319c71d62757a,
,,,,space,0.4218,,0,124,124,307,1,F, , , , ,space,2500,2.5,,001,2021-08-19_16h54.01.913,natb3,2021.2.3,MacIntel,60.14675809,6111582fe881af862128feb5,611e07ecdcc96256ae8d5b80,611e7d56d5f319c71d62757a,
,,,,space,0.3829,,0,125,125,34,1,Q, , , , ,space,2500,2.5,,001,2021-08-19_16h54.01.913,natb3,2021.2.3,MacIntel,60.14675809,6111582fe881af862128feb5,611e07ecdcc96256ae8d5b80,611e7d56d5f319c71d62757a,
,,,,space,0.4657,,0,126,126,180,1,W, , , , ,space,2000,2,,001,2021-08-19_16h54.01.913,natb3,2021.2.3,MacIntel,60.14675809,6111582fe881af862128feb5,611e07ecdcc96256ae8d5b80,611e7d56d5f319c71d62757a,
,,,,space,0.4183,,0,127,127,154,1,I, , , , ,space,2500,2.5,,001,2021-08-19_16h54.01.913,natb3,2021.2.3,MacIntel,60.14675809,6111582fe881af862128feb5,611e07ecdcc96256ae8d5b80,611e7d56d5f319c71d62757a,
,,,,space,0.3809,,0,128,128,272,1,D, , , , ,space,2000,2,,001,2021-08-19_16h54.01.913,natb3,2021.2.3,MacIntel,60.14675809,6111582fe881af862128feb5,611e07ecdcc96256ae8d5b80,611e7d56d5f319c71d62757a,
,,,,space,0.365,,0,129,129,114,1,E, , , , ,space,2000,2,,001,2021-08-19_16h54.01.913,natb3,2021.2.3,MacIntel,60.14675809,6111582fe881af862128feb5,611e07ecdcc96256ae8d5b80,611e7d56d5f319c71d62757a,
,,,,space,0.4,,0,130,130,267,1,P, , , , ,space,2000,2,,001,2021-08-19_16h54.01.913,natb3,2021.2.3,MacIntel,60.14675809,6111582fe881af862128feb5,611e07ecdcc96256ae8d5b80,611e7d56d5f319c71d62757a,
,,,,,,,0,131,131,313,1,X, , , , ,,2500,2.5,,001,2021-08-19_16h54.01.913,natb3,2021.2.3,MacIntel,60.14675809,6111582fe881af862128feb5,611e07ecdcc96256ae8d5b80,611e7d56d5f319c71d62757a,
,,,,space,0.4683,,0,132,132,62,1,V, , , , ,space,1500,1.5,,001,2021-08-19_16h54.01.913,natb3,2021.2.3,MacIntel,60.14675809,6111582fe881af862128feb5,611e07ecdcc96256ae8d5b80,611e7d56d5f319c71d62757a,
,,,,space,0.4189,,0,133,133,91,1,L, , , , ,space,2000,2,,001,2021-08-19_16h54.01.913,natb3,2021.2.3,MacIntel,60.14675809,6111582fe881af862128feb5,611e07ecdcc96256ae8d5b80,611e7d56d5f319c71d62757a,
,,,,,,,0,134,134,145,1,X, , , , ,,2000,2,,001,2021-08-19_16h54.01.913,natb3,2021.2.3,MacIntel,60.14675809,6111582fe881af862128feb5,611e07ecdcc96256ae8d5b80,611e7d56d5f319c71d62757a,
,,,,,,,0,135,135,66,1,X, ,4,7, ,,2000,2,,001,2021-08-19_16h54.01.913,natb3,2021.2.3,MacIntel,60.14675809,6111582fe881af862128feb5,611e07ecdcc96256ae8d5b80,611e7d56d5f319c71d62757a,
,,,,space,0.4703,,0,136,136,177,1,M, , , , ,space,2500,2.5,,001,2021-08-19_16h54.01.913,natb3,2021.2.3,MacIntel,60.14675809,6111582fe881af862128feb5,611e07ecdcc96256ae8d5b80,611e7d56d5f319c71d62757a,
,,,,space,0.4835,,0,137,137,312,1,K, , , , ,space,2000,2,,001,2021-08-19_16h54.01.913,natb3,2021.2.3,MacIntel,60.14675809,6111582fe881af862128feb5,611e07ecdcc96256ae8d5b80,611e7d56d5f319c71d62757a,
,,,,space,0.4083,,0,138,138,216,1,R, , , , ,space,1500,1.5,,001,2021-08-19_16h54.01.913,natb3,2021.2.3,MacIntel,60.14675809,6111582fe881af862128feb5,611e07ecdcc96256ae8d5b80,611e7d56d5f319c71d62757a,
,,,,space,0.4991,,0,139,139,300,1,O, , , , ,space,2500,2.5,,001,2021-08-19_16h54.01.913,natb3,2021.2.3,MacIntel,60.14675809,6111582fe881af862128feb5,611e07ecdcc96256ae8d5b80,611e7d56d5f319c71d62757a,
,,,,space,0.466,,0,140,140,219,1,Y, , , , ,space,2000,2,,001,2021-08-19_16h54.01.913,natb3,2021.2.3,MacIntel,60.14675809,6111582fe881af862128feb5,611e07ecdcc96256ae8d5b80,611e7d56d5f319c71d62757a,
,,,,,,,0,141,141,207,1,X,9, ,2, ,,2500,2.5,,001,2021-08-19_16h54.01.913,natb3,2021.2.3,MacIntel,60.14675809,6111582fe881af862128feb5,611e07ecdcc96256ae8d5b80,611e7d56d5f319c71d62757a,
,,,,space,0.4179,,0,142,142,289,1,Q, , , , ,space,2000,2,,001,2021-08-19_16h54.01.913,natb3,2021.2.3,MacIntel,60.14675809,6111582fe881af862128feb5,611e07ecdcc96256ae8d5b80,611e7d56d5f319c71d62757a,
,,,,,,,0,143,143,148,1,X, , , , ,,2000,2,,001,2021-08-19_16h54.01.913,natb3,2021.2.3,MacIntel,60.14675809,6111582fe881af862128feb5,611e07ecdcc96256ae8d5b80,611e7d56d5f319c71d62757a,
,,,,,,,0,144,144,96,1,X, , , , ,,1500,1.5,,001,2021-08-19_16h54.01.913,natb3,2021.2.3,MacIntel,60.14675809,6111582fe881af862128feb5,611e07ecdcc96256ae8d5b80,611e7d56d5f319c71d62757a,
,,,,space,0.4153,,0,145,145,20,1,H, , , , ,space,1500,1.5,,001,2021-08-19_16h54.01.913,natb3,2021.2.3,MacIntel,60.14675809,6111582fe881af862128feb5,611e07ecdcc96256ae8d5b80,611e7d56d5f319c71d62757a,
,,,,space,0.3994,,0,146,146,232,1,O, , , , ,space,2500,2.5,,001,2021-08-19_16h54.01.913,natb3,2021.2.3,MacIntel,60.14675809,6111582fe881af862128feb5,611e07ecdcc96256ae8d5b80,611e7d56d5f319c71d62757a,
,,,,space,0.3997,,0,147,147,132,1,H, , , , ,space,2500,2.5,,001,2021-08-19_16h54.01.913,natb3,2021.2.3,MacIntel,60.14675809,6111582fe881af862128feb5,611e07ecdcc96256ae8d5b80,611e7d56d5f319c71d62757a,
,,,,,,,0,148,148,195,1,X, , , , ,,1500,1.5,,001,2021-08-19_16h54.01.913,natb3,2021.2.3,MacIntel,60.14675809,6111582fe881af862128feb5,611e07ecdcc96256ae8d5b80,611e7d56d5f319c71d62757a,
,,,,space,0.4667,,0,149,149,108,1,Y, , , , ,space,2500,2.5,,001,2021-08-19_16h54.01.913,natb3,2021.2.3,MacIntel,60.14675809,6111582fe881af862128feb5,611e07ecdcc96256ae8d5b80,611e7d56d5f319c71d62757a,
,,,,space,0.4198,,0,150,150,53,1,G, , , , ,space,2500,2.5,,001,2021-08-19_16h54.01.913,natb3,2021.2.3,MacIntel,60.14675809,6111582fe881af862128feb5,611e07ecdcc96256ae8d5b80,611e7d56d5f319c71d62757a,
,,,,space,0.4318,,0,151,151,8,1,U, , , , ,space,1500,1.5,,001,2021-08-19_16h54.01.913,natb3,2021.2.3,MacIntel,60.14675809,6111582fe881af862128feb5,611e07ecdcc96256ae8d5b80,611e7d56d5f319c71d62757a,
,,,,space,0.3517,,0,152,152,332,1,U, , , , ,space,2000,2,,001,2021-08-19_16h54.01.913,natb3,2021.2.3,MacIntel,60.14675809,6111582fe881af862128feb5,611e07ecdcc96256ae8d5b80,611e7d56d5f319c71d62757a,
,,,,space,0.3662,,0,153,153,126,1,A, , , , ,space,2500,2.5,,001,2021-08-19_16h54.01.913,natb3,2021.2.3,MacIntel,60.14675809,6111582fe881af862128feb5,611e07ecdcc96256ae8d5b80,611e7d56d5f319c71d62757a,
,,,,,,,0,154,154,125,1,X, , , , ,,2000,2,,001,2021-08-19_16h54.01.913,natb3,2021.2.3,MacIntel,60.14675809,6111582fe881af862128feb5,611e07ecdcc96256ae8d5b80,611e7d56d5f319c71d62757a,
,,,,space,0.439,,0,155,155,119,1,Y, , , , ,space,2500,2.5,,001,2021-08-19_16h54.01.913,natb3,2021.2.3,MacIntel,60.14675809,6111582fe881af862128feb5,611e07ecdcc96256ae8d5b80,611e7d56d5f319c71d62757a,
,,,,space,0.4163,,0,156,156,87,1,H, , , , ,space,1500,1.5,,001,2021-08-19_16h54.01.913,natb3,2021.2.3,MacIntel,60.14675809,6111582fe881af862128feb5,611e07ecdcc96256ae8d5b80,611e7d56d5f319c71d62757a,
,,,,space,0.3664,,0,157,157,184,1,T, , , , ,space,2000,2,,001,2021-08-19_16h54.01.913,natb3,2021.2.3,MacIntel,60.14675809,6111582fe881af862128feb5,611e07ecdcc96256ae8d5b80,611e7d56d5f319c71d62757a,
,,,,space,0.4334,,0,158,158,223,1,Q, , , , ,space,2000,2,,001,2021-08-19_16h54.01.913,natb3,2021.2.3,MacIntel,60.14675809,6111582fe881af862128feb5,611e07ecdcc96256ae8d5b80,611e7d56d5f319c71d62757a,
,,,,,,,0,159,159,39,1,X,6,2, , ,,1500,1.5,,001,2021-08-19_16h54.01.913,natb3,2021.2.3,MacIntel,60.14675809,6111582fe881af862128feb5,611e07ecdcc96256ae8d5b80,611e7d56d5f319c71d62757a,
,,,,space,0.427,,0,160,160,244,1,J, , , , ,space,1500,1.5,,001,2021-08-19_16h54.01.913,natb3,2021.2.3,MacIntel,60.14675809,6111582fe881af862128feb5,611e07ecdcc96256ae8d5b80,611e7d56d5f319c71d62757a,
,,,,space,0.4517,,0,161,161,71,1,R, , , , ,space,2500,2.5,,001,2021-08-19_16h54.01.913,natb3,2021.2.3,MacIntel,60.14675809,6111582fe881af862128feb5,611e07ecdcc96256ae8d5b80,611e7d56d5f319c71d62757a,
,,,,space,0.3852,,0,162,162,118,1,X, , , , ,,2000,2,,001,2021-08-19_16h54.01.913,natb3,2021.2.3,MacIntel,60.14675809,6111582fe881af862128feb5,611e07ecdcc96256ae8d5b80,611e7d56d5f319c71d62757a,
,,,,space,0.4042,,0,163,163,225,1,E, , , , ,space,2000,2,,001,2021-08-19_16h54.01.913,natb3,2021.2.3,MacIntel,60.14675809,6111582fe881af862128feb5,611e07ecdcc96256ae8d5b80,611e7d56d5f319c71d62757a,
,,,,space,0.4027,,0,164,164,323,1,M, , , , ,space,2500,2.5,,001,2021-08-19_16h54.01.913,natb3,2021.2.3,MacIntel,60.14675809,6111582fe881af862128feb5,611e07ecdcc96256ae8d5b80,611e7d56d5f319c71d62757a,
,,,,space,0.4018,,0,165,165,135,1,K, , , , ,space,1500,1.5,,001,2021-08-19_16h54.01.913,natb3,2021.2.3,MacIntel,60.14675809,6111582fe881af862128feb5,611e07ecdcc96256ae8d5b80,611e7d56d5f319c71d62757a,
,,,,space,0.3719,,0,166,166,101,1,Q, , , , ,space,2500,2.5,,001,2021-08-19_16h54.01.913,natb3,2021.2.3,MacIntel,60.14675809,6111582fe881af862128feb5,611e07ecdcc96256ae8d5b80,611e7d56d5f319c71d62757a,
,,,,space,0.4016,space,0,167,167,57,1,K, , , , ,space,2500,2.5,,001,2021-08-19_16h54.01.913,natb3,2021.2.3,MacIntel,60.14675809,6111582fe881af862128feb5,611e07ecdcc96256ae8d5b80,611e7d56d5f319c71d62757a,34.7178
,,,,space,0.3853,,0,168,168,0,1,Q, , , , ,space,1500,1.5,,001,2021-08-19_16h54.01.913,natb3,2021.2.3,MacIntel,60.14675809,6111582fe881af862128feb5,611e07ecdcc96256ae8d5b80,611e7d56d5f319c71d62757a,
,,,,space,0.3864,,0,169,169,104,1,E, , , , ,space,2000,2,,001,2021-08-19_16h54.01.913,natb3,2021.2.3,MacIntel,60.14675809,6111582fe881af862128feb5,611e07ecdcc96256ae8d5b80,611e7d56d5f319c71d62757a,
,,,,space,0.4332,,0,170,170,228,1,Y, , , , ,space,2000,2,,001,2021-08-19_16h54.01.913,natb3,2021.2.3,MacIntel,60.14675809,6111582fe881af862128feb5,611e07ecdcc96256ae8d5b80,611e7d56d5f319c71d62757a,
,,,,space,0.3688,,0,171,171,296,1,Y, , , , ,space,2500,2.5,,001,2021-08-19_16h54.01.913,natb3,2021.2.3,MacIntel,60.14675809,6111582fe881af862128feb5,611e07ecdcc96256ae8d5b80,611e7d56d5f319c71d62757a,
,,,,space,0.3896,,0,172,172,189,1,O, , , , ,space,1500,1.5,,001,2021-08-19_16h54.01.913,natb3,2021.2.3,MacIntel,60.14675809,6111582fe881af862128feb5,611e07ecdcc96256ae8d5b80,611e7d56d5f319c71d62757a,
,,,,space,0.5388,,0,173,173,110,1,I, , , , ,space,1500,1.5,,001,2021-08-19_16h54.01.913,natb3,2021.2.3,MacIntel,60.14675809,6111582fe881af862128feb5,611e07ecdcc96256ae8d5b80,611e7d56d5f319c71d62757a,
,,,,space,0.4182,,0,174,174,29,1,B, , , , ,space,1500,1.5,,001,2021-08-19_16h54.01.913,natb3,2021.2.3,MacIntel,60.14675809,6111582fe881af862128feb5,611e07ecdcc96256ae8d5b80,611e7d56d5f319c71d62757a,
,,,,space,0.3499,,0,175,175,106,1,T, , , , ,space,1500,1.5,,001,2021-08-19_16h54.01.913,natb3,2021.2.3,MacIntel,60.14675809,6111582fe881af862128feb5,611e07ecdcc96256ae8d5b80,611e7d56d5f319c71d62757a,
,,,,space,0.3496,,0,176,176,261,1,T, , , , ,space,2000,2,,001,2021-08-19_16h54.01.913,natb3,2021.2.3,MacIntel,60.14675809,6111582fe881af862128feb5,611e07ecdcc96256ae8d5b80,611e7d56d5f319c71d62757a,
,,,,,,,0,177,177,282,1,X, , , , ,,2500,2.5,,001,2021-08-19_16h54.01.913,natb3,2021.2.3,MacIntel,60.14675809,6111582fe881af862128feb5,611e07ecdcc96256ae8d5b80,611e7d56d5f319c71d62757a,
,,,,space,0.3929,,0,178,178,249,1,C, , , , ,space,2000,2,,001,2021-08-19_16h54.01.913,natb3,2021.2.3,MacIntel,60.14675809,6111582fe881af862128feb5,611e07ecdcc96256ae8d5b80,611e7d56d5f319c71d62757a,
,,,,,,,0,179,179,299,1,X, , , , ,,2500,2.5,,001,2021-08-19_16h54.01.913,natb3,2021.2.3,MacIntel,60.14675809,6111582fe881af862128feb5,611e07ecdcc96256ae8d5b80,611e7d56d5f319c71d62757a,
,,,,space,0.4155,,0,180,180,30,1,N, , , , ,space,2500,2.5,,001,2021-08-19_16h54.01.913,natb3,2021.2.3,MacIntel,60.14675809,6111582fe881af862128feb5,611e07ecdcc96256ae8d5b80,611e7d56d5f319c71d62757a,
,,,,space,0.4046,,0,181,181,310,1,J, , , , ,space,2500,2.5,,001,2021-08-19_16h54.01.913,natb3,2021.2.3,MacIntel,60.14675809,6111582fe881af862128feb5,611e07ecdcc96256ae8d5b80,611e7d56d5f319c71d62757a,
,,,,space,0.4705,,0,182,182,103,1,W, , , , ,space,2000,2,,001,2021-08-19_16h54.01.913,natb3,2021.2.3,MacIntel,60.14675809,6111582fe881af862128feb5,611e07ecdcc96256ae8d5b80,611e7d56d5f319c71d62757a,
,,,,space,0.3986,,0,183,183,170,1,Z, , , , ,space,2000,2,,001,2021-08-19_16h54.01.913,natb3,2021.2.3,MacIntel,60.14675809,6111582fe881af862128feb5,611e07ecdcc96256ae8d5b80,611e7d56d5f319c71d62757a,
,,,,space,0.4526,,0,184,184,303,1,A, , , , ,space,2000,2,,001,2021-08-19_16h54.01.913,natb3,2021.2.3,MacIntel,60.14675809,6111582fe881af862128feb5,611e07ecdcc96256ae8d5b80,611e7d56d5f319c71d62757a,
,,,,,,,0,185,185,213,1,X, , , , ,,2500,2.5,,001,2021-08-19_16h54.01.913,natb3,2021.2.3,MacIntel,60.14675809,6111582fe881af862128feb5,611e07ecdcc96256ae8d5b80,611e7d56d5f319c71d62757a,
,,,,,,,0,186,186,175,1,X,7, ,4,2,,1500,1.5,,001,2021-08-19_16h54.01.913,natb3,2021.2.3,MacIntel,60.14675809,6111582fe881af862128feb5,611e07ecdcc96256ae8d5b80,611e7d56d5f319c71d62757a,
,,,,space,0.3994,,0,187,187,205,1,C, , , , ,space,2000,2,,001,2021-08-19_16h54.01.913,natb3,2021.2.3,MacIntel,60.14675809,6111582fe881af862128feb5,611e07ecdcc96256ae8d5b80,611e7d56d5f319c71d62757a,
,,,,space,0.4677,,0,188,188,123,1,O, , , , ,space,1500,1.5,,001,2021-08-19_16h54.01.913,natb3,2021.2.3,MacIntel,60.14675809,6111582fe881af862128feb5,611e07ecdcc96256ae8d5b80,611e7d56d5f319c71d62757a,
,,,,,,,0,189,189,7,1,X, , , , ,,1500,1.5,,001,2021-08-19_16h54.01.913,natb3,2021.2.3,MacIntel,60.14675809,6111582fe881af862128feb5,611e07ecdcc96256ae8d5b80,611e7d56d5f319c71d62757a,
,,,,space,0.4049,,0,190,190,149,1,R, , , , ,space,2000,2,,001,2021-08-19_16h54.01.913,natb3,2021.2.3,MacIntel,60.14675809,6111582fe881af862128feb5,611e07ecdcc96256ae8d5b80,611e7d56d5f319c71d62757a,
,,,,space,0.3863,,0,191,191,11,1,P, , , , ,space,2500,2.5,,001,2021-08-19_16h54.01.913,natb3,2021.2.3,MacIntel,60.14675809,6111582fe881af862128feb5,611e07ecdcc96256ae8d5b80,611e7d56d5f319c71d62757a,
,,,,,,,0,192,192,302,1,X, , , , ,,2000,2,,001,2021-08-19_16h54.01.913,natb3,2021.2.3,MacIntel,60.14675809,6111582fe881af862128feb5,611e07ecdcc96256ae8d5b80,611e7d56d5f319c71d62757a,
,,,,space,0.4487,,0,193,193,70,1,E, , , , ,space,2500,2.5,,001,2021-08-19_16h54.01.913,natb3,2021.2.3,MacIntel,60.14675809,6111582fe881af862128feb5,611e07ecdcc96256ae8d5b80,611e7d56d5f319c71d62757a,
,,,,,,,0,194,194,305,1,X, , , , ,,1500,1.5,,001,2021-08-19_16h54.01.913,natb3,2021.2.3,MacIntel,60.14675809,6111582fe881af862128feb5,611e07ecdcc96256ae8d5b80,611e7d56d5f319c71d62757a,
,,,,space,0.6523,,0,195,195,245,1,K, , , , ,space,2000,2,,001,2021-08-19_16h54.01.913,natb3,2021.2.3,MacIntel,60.14675809,6111582fe881af862128feb5,611e07ecdcc96256ae8d5b80,611e7d56d5f319c71d62757a,
,,,,,,,0,196,196,153,1,X,4,7, ,6,,2000,2,,001,2021-08-19_16h54.01.913,natb3,2021.2.3,MacIntel,60.14675809,6111582fe881af862128feb5,611e07ecdcc96256ae8d5b80,611e7d56d5f319c71d62757a,
,,,,space,0.4361,,0,197,197,128,1,D, , , , ,space,2500,2.5,,001,2021-08-19_16h54.01.913,natb3,2021.2.3,MacIntel,60.14675809,6111582fe881af862128feb5,611e07ecdcc96256ae8d5b80,611e7d56d5f319c71d62757a,
,,,,space,0.4508,,0,198,198,127,1,S, , , , ,space,2500,2.5,,001,2021-08-19_16h54.01.913,natb3,2021.2.3,MacIntel,60.14675809,6111582fe881af862128feb5,611e07ecdcc96256ae8d5b80,611e7d56d5f319c71d62757a,
,,,,space,0.4852,,0,199,199,320,1,B, , , , ,space,1500,1.5,,001,2021-08-19_16h54.01.913,natb3,2021.2.3,MacIntel,60.14675809,6111582fe881af862128feb5,611e07ecdcc96256ae8d5b80,611e7d56d5f319c71d62757a,
,,,,space,0.4838,,0,200,200,65,1,M, , , , ,space,1500,1.5,,001,2021-08-19_16h54.01.913,natb3,2021.2.3,MacIntel,60.14675809,6111582fe881af862128feb5,611e07ecdcc96256ae8d5b80,611e7d56d5f319c71d62757a,
,,,,space,0.3388,,0,201,201,306,1,D, , , , ,space,2000,2,,001,2021-08-19_16h54.01.913,natb3,2021.2.3,MacIntel,60.14675809,6111582fe881af862128feb5,611e07ecdcc96256ae8d5b80,611e7d56d5f319c71d62757a,
,,,,space,0.3495,,0,202,202,331,1,Y, , , , ,space,2500,2.5,,001,2021-08-19_16h54.01.913,natb3,2021.2.3,MacIntel,60.14675809,6111582fe881af862128feb5,611e07ecdcc96256ae8d5b80,611e7d56d5f319c71d62757a,
,,,,,,,0,203,203,263,1,X,4, ,6, ,,1500,1.5,,001,2021-08-19_16h54.01.913,natb3,2021.2.3,MacIntel,60.14675809,6111582fe881af862128feb5,611e07ecdcc96256ae8d5b80,611e7d56d5f319c71d62757a,
,,,,space,0.4366,,0,204,204,190,1,P, , , , ,space,2000,2,,001,2021-08-19_16h54.01.913,natb3,2021.2.3,MacIntel,60.14675809,6111582fe881af862128feb5,611e07ecdcc96256ae8d5b80,611e7d56d5f319c71d62757a,
,,,,space,0.4329,,0,205,205,44,1,I, , , , ,space,2500,2.5,,001,2021-08-19_16h54.01.913,natb3,2021.2.3,MacIntel,60.14675809,6111582fe881af862128feb5,611e07ecdcc96256ae8d5b80,611e7d56d5f319c71d62757a,
,,,,space,0.5858,,0,206,206,121,1,I, , , , ,space,2000,2,,001,2021-08-19_16h54.01.913,natb3,2021.2.3,MacIntel,60.14675809,6111582fe881af862128feb5,611e07ecdcc96256ae8d5b80,611e7d56d5f319c71d62757a,
,,,,space,0.4055,,0,207,207,42,1,U, , , , ,space,1500,1.5,,001,2021-08-19_16h54.01.913,natb3,2021.2.3,MacIntel,60.14675809,6111582fe881af862128feb5,611e07ecdcc96256ae8d5b80,611e7d56d5f319c71d62757a,
,,,,,,,0,208,208,200,1,X,7, ,5,3,,1500,1.5,,001,2021-08-19_16h54.01.913,natb3,2021.2.3,MacIntel,60.14675809,6111582fe881af862128feb5,611e07ecdcc96256ae8d5b80,611e7d56d5f319c71d62757a,
,,,,space,0.3966,,0,209,209,25,1,Z, , , , ,space,2500,2.5,,001,2021-08-19_16h54.01.913,natb3,2021.2.3,MacIntel,60.14675809,6111582fe881af862128feb5,611e07ecdcc96256ae8d5b80,611e7d56d5f319c71d62757a,
,,,,,,,0,210,210,271,1,X, , , , ,,2500,2.5,,001,2021-08-19_16h54.01.913,natb3,2021.2.3,MacIntel,60.14675809,6111582fe881af862128feb5,611e07ecdcc96256ae8d5b80,611e7d56d5f319c71d62757a,
,,,,,,,0,211,211,335,1,P,,,,,space,1500,1.5,,001,2021-08-19_16h54.01.913,natb3,2021.2.3,MacIntel,60.14675809,6111582fe881af862128feb5,611e07ecdcc96256ae8d5b80,611e7d56d5f319c71d62757a,
,,,,space,0.6481,,0,212,212,314,1,L, , , , ,space,1500,1.5,,001,2021-08-19_16h54.01.913,natb3,2021.2.3,MacIntel,60.14675809,6111582fe881af862128feb5,611e07ecdcc96256ae8d5b80,611e7d56d5f319c71d62757a,
,,,,space,0.4663,,0,213,213,231,1,I, , , , ,space,2500,2.5,,001,2021-08-19_16h54.01.913,natb3,2021.2.3,MacIntel,60.14675809,6111582fe881af862128feb5,611e07ecdcc96256ae8d5b80,611e7d56d5f319c71d62757a,
,,,,space,0.4881,,0,214,214,111,1,O, , , , ,space,2000,2,,001,2021-08-19_16h54.01.913,natb3,2021.2.3,MacIntel,60.14675809,6111582fe881af862128feb5,611e07ecdcc96256ae8d5b80,611e7d56d5f319c71d62757a,
,,,,space,0.4682,,0,215,215,131,1,G, , , , ,space,1500,1.5,,001,2021-08-19_16h54.01.913,natb3,2021.2.3,MacIntel,60.14675809,6111582fe881af862128feb5,611e07ecdcc96256ae8d5b80,611e7d56d5f319c71d62757a,
,,,,space,0.3198,,0,216,216,226,1,R, , , , ,space,2000,2,,001,2021-08-19_16h54.01.913,natb3,2021.2.3,MacIntel,60.14675809,6111582fe881af862128feb5,611e07ecdcc96256ae8d5b80,611e7d56d5f319c71d62757a,
,,,,space,0.5515,,0,217,217,210,1,M, , , , ,space,1500,1.5,,001,2021-08-19_16h54.01.913,natb3,2021.2.3,MacIntel,60.14675809,6111582fe881af862128feb5,611e07ecdcc96256ae8d5b80,611e7d56d5f319c71d62757a,
,,,,space,0.3532,,0,218,218,63,1,B, , , , ,space,2000,2,,001,2021-08-19_16h54.01.913,natb3,2021.2.3,MacIntel,60.14675809,6111582fe881af862128feb5,611e07ecdcc96256ae8d5b80,611e7d56d5f319c71d62757a,
,,,,space,0.4323,,0,219,219,241,1,G, , , , ,space,2500,2.5,,001,2021-08-19_16h54.01.913,natb3,2021.2.3,MacIntel,60.14675809,6111582fe881af862128feb5,611e07ecdcc96256ae8d5b80,611e7d56d5f319c71d62757a,
,,,,space,0.3829,,0,220,220,81,1,S, , , , ,space,2000,2,,001,2021-08-19_16h54.01.913,natb3,2021.2.3,MacIntel,60.14675809,6111582fe881af862128feb5,611e07ecdcc96256ae8d5b80,611e7d56d5f319c71d62757a,
,,,,,,,0,221,221,311,1,X,1,2,7,3,,2500,2.5,,001,2021-08-19_16h54.01.913,natb3,2021.2.3,MacIntel,60.14675809,6111582fe881af862128feb5,611e07ecdcc96256ae8d5b80,611e7d56d5f319c71d62757a,
,,,,,,,0,222,222,187,1,X, ,3,7,4,,1500,1.5,,001,2021-08-19_16h54.01.913,natb3,2021.2.3,MacIntel,60.14675809,6111582fe881af862128feb5,611e07ecdcc96256ae8d5b80,611e7d56d5f319c71d62757a,
,,,,space,0.427,,0,223,223,198,1,H, , , , ,space,2500,2.5,,001,2021-08-19_16h54.01.913,natb3,2021.2.3,MacIntel,60.14675809,6111582fe881af862128feb5,611e07ecdcc96256ae8d5b80,611e7d56d5f319c71d62757a,
,,,,space,0.4832,,0,224,224,116,1,X, , , , ,,2000,2,,001,2021-08-19_16h54.01.913,natb3,2021.2.3,MacIntel,60.14675809,6111582fe881af862128feb5,611e07ecdcc96256ae8d5b80,611e7d56d5f319c71d62757a,
,,,,space,0.5182,,0,225,225,109,1,U, , , , ,space,1500,1.5,,001,2021-08-19_16h54.01.913,natb3,2021.2.3,MacIntel,60.14675809,6111582fe881af862128feb5,611e07ecdcc96256ae8d5b80,611e7d56d5f319c71d62757a,
,,,,space,0.4168,,0,226,226,143,1,M, , , , ,space,2500,2.5,,001,2021-08-19_16h54.01.913,natb3,2021.2.3,MacIntel,60.14675809,6111582fe881af862128feb5,611e07ecdcc96256ae8d5b80,611e7d56d5f319c71d62757a,
,,,,space,0.4192,,0,227,227,37,1,E, , , , ,space,2500,2.5,,001,2021-08-19_16h54.01.913,natb3,2021.2.3,MacIntel,60.14675809,6111582fe881af862128feb5,611e07ecdcc96256ae8d5b80,611e7d56d5f319c71d62757a,
,,,,space,0.5015,,0,228,228,230,1,U, , , , ,space,1500,1.5,,001,2021-08-19_16h54.01.913,natb3,2021.2.3,MacIntel,60.14675809,6111582fe881af862128feb5,611e07ecdcc96256ae8d5b80,611e7d56d5f319c71d62757a,
,,,,,,,0,229,229,252,1,X,3, ,6,9,,2000,2,,001,2021-08-19_16h54.01.913,natb3,2021.2.3,MacIntel,60.14675809,6111582fe881af862128feb5,611e07ecdcc96256ae8d5b80,611e7d56d5f319c71d62757a,
,,,,space,0.4337,,0,230,230,45,1,O, , , , ,space,2000,2,,001,2021-08-19_16h54.01.913,natb3,2021.2.3,MacIntel,60.14675809,6111582fe881af862128feb5,611e07ecdcc96256ae8d5b80,611e7d56d5f319c71d62757a,
,,,,space,0.4333,,0,231,231,47,1,P, , , , ,space,2000,2,,001,2021-08-19_16h54.01.913,natb3,2021.2.3,MacIntel,60.14675809,6111582fe881af862128feb5,611e07ecdcc96256ae8d5b80,611e7d56d5f319c71d62757a,
,,,,space,0.397,,0,232,232,185,1,Y, , , , ,space,2500,2.5,,001,2021-08-19_16h54.01.913,natb3,2021.2.3,MacIntel,60.14675809,6111582fe881af862128feb5,611e07ecdcc96256ae8d5b80,611e7d56d5f319c71d62757a,
,,,,,,,0,233,233,248,1,X, ,1,5, ,,1500,1.5,,001,2021-08-19_16h54.01.913,natb3,2021.2.3,MacIntel,60.14675809,6111582fe881af862128feb5,611e07ecdcc96256ae8d5b80,611e7d56d5f319c71d62757a,
,,,,space,0.4992,,0,234,234,192,1,A, , , , ,space,2000,2,,001,2021-08-19_16h54.01.913,natb3,2021.2.3,MacIntel,60.14675809,6111582fe881af862128feb5,611e07ecdcc96256ae8d5b80,611e7d56d5f319c71d62757a,
,,,,space,0.5158,,0,235,235,235,1,A, , , , ,space,1500,1.5,,001,2021-08-19_16h54.01.913,natb3,2021.2.3,MacIntel,60.14675809,6111582fe881af862128feb5,611e07ecdcc96256ae8d5b80,611e7d56d5f319c71d62757a,
,,,,space,0.4308,,0,236,236,167,1,K, , , , ,space,1500,1.5,,001,2021-08-19_16h54.01.913,natb3,2021.2.3,MacIntel,60.14675809,6111582fe881af862128feb5,611e07ecdcc96256ae8d5b80,611e7d56d5f319c71d62757a,
,,,,space,0.4161,,0,237,237,59,1,Z, , , , ,space,2000,2,,001,2021-08-19_16h54.01.913,natb3,2021.2.3,MacIntel,60.14675809,6111582fe881af862128feb5,611e07ecdcc96256ae8d5b80,611e7d56d5f319c71d62757a,
,,,,,,,0,238,238,84,1,X, , , , ,,2000,2,,001,2021-08-19_16h54.01.913,natb3,2021.2.3,MacIntel,60.14675809,6111582fe881af862128feb5,611e07ecdcc96256ae8d5b80,611e7d56d5f319c71d62757a,
,,,,space,0.4204,,0,239,239,202,1,L, , , , ,space,2500,2.5,,001,2021-08-19_16h54.01.913,natb3,2021.2.3,MacIntel,60.14675809,6111582fe881af862128feb5,611e07ecdcc96256ae8d5b80,611e7d56d5f319c71d62757a,
,,,,space,0.48,,0,240,240,113,1,W, , , , ,space,2500,2.5,,001,2021-08-19_16h54.01.913,natb3,2021.2.3,MacIntel,60.14675809,6111582fe881af862128feb5,611e07ecdcc96256ae8d5b80,611e7d56d5f319c71d62757a,
,,,,space,0.4318,,0,241,241,92,1,Z, , , , ,space,1500,1.5,,001,2021-08-19_16h54.01.913,natb3,2021.2.3,MacIntel,60.14675809,6111582fe881af862128feb5,611e07ecdcc96256ae8d5b80,611e7d56d5f319c71d62757a,
,,,,space,0.4336,,0,242,242,124,1,P, , , , ,space,2000,2,,001,2021-08-19_16h54.01.913,natb3,2021.2.3,MacIntel,60.14675809,6111582fe881af862128feb5,611e07ecdcc96256ae8d5b80,611e7d56d5f319c71d62757a,
,,,,space,0.6026,,0,243,243,9,1,I, , , , ,space,1500,1.5,,001,2021-08-19_16h54.01.913,natb3,2021.2.3,MacIntel,60.14675809,6111582fe881af862128feb5,611e07ecdcc96256ae8d5b80,611e7d56d5f319c71d62757a,
,,,,space,0.4152,,0,244,244,297,1,U, , , , ,space,2000,2,,001,2021-08-19_16h54.01.913,natb3,2021.2.3,MacIntel,60.14675809,6111582fe881af862128feb5,611e07ecdcc96256ae8d5b80,611e7d56d5f319c71d62757a,
,,,,,,,0,245,245,239,1,X, , , , ,,2000,2,,001,2021-08-19_16h54.01.913,natb3,2021.2.3,MacIntel,60.14675809,6111582fe881af862128feb5,611e07ecdcc96256ae8d5b80,611e7d56d5f319c71d62757a,
,,,,space,0.4679,,0,246,246,294,1,T, , , , ,space,2000,2,,001,2021-08-19_16h54.01.913,natb3,2021.2.3,MacIntel,60.14675809,6111582fe881af862128feb5,611e07ecdcc96256ae8d5b80,611e7d56d5f319c71d62757a,
,,,,,,,0,247,247,141,1,X,1, ,4,6,,1500,1.5,,001,2021-08-19_16h54.01.913,natb3,2021.2.3,MacIntel,60.14675809,6111582fe881af862128feb5,611e07ecdcc96256ae8d5b80,611e7d56d5f319c71d62757a,
,,,,space,0.4944,,0,248,248,80,1,A, , , , ,space,2000,2,,001,2021-08-19_16h54.01.913,natb3,2021.2.3,MacIntel,60.14675809,6111582fe881af862128feb5,611e07ecdcc96256ae8d5b80,611e7d56d5f319c71d62757a,
,,,,space,0.5821,,0,249,249,139,1,V, , , , ,space,2000,2,,001,2021-08-19_16h54.01.913,natb3,2021.2.3,MacIntel,60.14675809,6111582fe881af862128feb5,611e07ecdcc96256ae8d5b80,611e7d56d5f319c71d62757a,
,,,,space,0.45,,0,250,250,137,1,C, , , , ,space,2500,2.5,,001,2021-08-19_16h54.01.913,natb3,2021.2.3,MacIntel,60.14675809,6111582fe881af862128feb5,611e07ecdcc96256ae8d5b80,611e7d56d5f319c71d62757a,
,,,,,,,0,251,251,129,1,X,2,3,5, ,,1500,1.5,,001,2021-08-19_16h54.01.913,natb3,2021.2.3,MacIntel,60.14675809,6111582fe881af862128feb5,611e07ecdcc96256ae8d5b80,611e7d56d5f319c71d62757a,
,,,,,,,0,252,252,93,1,X,5, ,7, ,,2500,2.5,,001,2021-08-19_16h54.01.913,natb3,2021.2.3,MacIntel,60.14675809,6111582fe881af862128feb5,611e07ecdcc96256ae8d5b80,611e7d56d5f319c71d62757a,
,,,,space,0.5983,,0,253,253,193,1,S, , , , ,space,2500,2.5,,001,2021-08-19_16h54.01.913,natb3,2021.2.3,MacIntel,60.14675809,6111582fe881af862128feb5,611e07ecdcc96256ae8d5b80,611e7d56d5f319c71d62757a,
,,,,space,0.4994,,0,254,254,283,1,C, , , , ,space,1500,1.5,,001,2021-08-19_16h54.01.913,natb3,2021.2.3,MacIntel,60.14675809,6111582fe881af862128feb5,611e07ecdcc96256ae8d5b80,611e7d56d5f319c71d62757a,
,,,,space,0.451,,0,255,255,181,1,E, , , , ,space,1500,1.5,,001,2021-08-19_16h54.01.913,natb3,2021.2.3,MacIntel,60.14675809,6111582fe881af862128feb5,611e07ecdcc96256ae8d5b80,611e7d56d5f319c71d62757a,
,,,,,,,0,256,256,329,1,X,3,4, ,2,,2500,2.5,,001,2021-08-19_16h54.01.913,natb3,2021.2.3,MacIntel,60.14675809,6111582fe881af862128feb5,611e07ecdcc96256ae8d5b80,611e7d56d5f319c71d62757a,
,,,,space,0.4352,,0,257,257,32,1,M, , , , ,space,1500,1.5,,001,2021-08-19_16h54.01.913,natb3,2021.2.3,MacIntel,60.14675809,6111582fe881af862128feb5,611e07ecdcc96256ae8d5b80,611e7d56d5f319c71d62757a,
,,,,space,0.349,,0,258,258,6,1,Y, , , , ,space,2500,2.5,,001,2021-08-19_16h54.01.913,natb3,2021.2.3,MacIntel,60.14675809,6111582fe881af862128feb5,611e07ecdcc96256ae8d5b80,611e7d56d5f319c71d62757a,
,,,,,,,0,259,259,23,1,X,1, ,5, ,,2000,2,,001,2021-08-19_16h54.01.913,natb3,2021.2.3,MacIntel,60.14675809,6111582fe881af862128feb5,611e07ecdcc96256ae8d5b80,611e7d56d5f319c71d62757a,
,,,,space,0.5347,,0,260,260,250,1,V, , , , ,space,2000,2,,001,2021-08-19_16h54.01.913,natb3,2021.2.3,MacIntel,60.14675809,6111582fe881af862128feb5,611e07ecdcc96256ae8d5b80,611e7d56d5f319c71d62757a,
,,,,,,,0,261,261,138,1,X,8,5, ,3,,2000,2,,001,2021-08-19_16h54.01.913,natb3,2021.2.3,MacIntel,60.14675809,6111582fe881af862128feb5,611e07ecdcc96256ae8d5b80,611e7d56d5f319c71d62757a,
,,,,space,0.4502,,0,262,262,308,1,G, , , , ,space,1500,1.5,,001,2021-08-19_16h54.01.913,natb3,2021.2.3,MacIntel,60.14675809,6111582fe881af862128feb5,611e07ecdcc96256ae8d5b80,611e7d56d5f319c71d62757a,
,,,,space,0.3447,,0,263,263,140,1,B, , , , ,space,2500,2.5,,001,2021-08-19_16h54.01.913,natb3,2021.2.3,MacIntel,60.14675809,6111582fe881af862128feb5,611e07ecdcc96256ae8d5b80,611e7d56d5f319c71d62757a,
,,,,space,0.3845,,0,264,264,88,1,J, , , , ,space,2500,2.5,,001,2021-08-19_16h54.01.913,natb3,2021.2.3,MacIntel,60.14675809,6111582fe881af862128feb5,611e07ecdcc96256ae8d5b80,611e7d56d5f319c71d62757a,
,,,,space,0.3824,,0,265,265,258,1,E, , , , ,space,1500,1.5,,001,2021-08-19_16h54.01.913,natb3,2021.2.3,MacIntel,60.14675809,6111582fe881af862128feb5,611e07ecdcc96256ae8d5b80,611e7d56d5f319c71d62757a,
,,,,space,0.3824,,0,266,266,64,1,N, , , , ,space,2000,2,,001,2021-08-19_16h54.01.913,natb3,2021.2.3,MacIntel,60.14675809,6111582fe881af862128feb5,611e07ecdcc96256ae8d5b80,611e7d56d5f319c71d62757a,
,,,,space,0.4385,,0,267,267,157,1,A, , , , ,space,2500,2.5,,001,2021-08-19_16h54.01.913,natb3,2021.2.3,MacIntel,60.14675809,6111582fe881af862128feb5,611e07ecdcc96256ae8d5b80,611e7d56d5f319c71d62757a,
,,,,space,0.3819,,0,268,268,264,1,U, , , , ,space,2000,2,,001,2021-08-19_16h54.01.913,natb3,2021.2.3,MacIntel,60.14675809,6111582fe881af862128feb5,611e07ecdcc96256ae8d5b80,611e7d56d5f319c71d62757a,
,,,,,,,0,269,269,162,1,X,1,6, ,2,,1500,1.5,,001,2021-08-19_16h54.01.913,natb3,2021.2.3,MacIntel,60.14675809,6111582fe881af862128feb5,611e07ecdcc96256ae8d5b80,611e7d56d5f319c71d62757a,
,,,,space,0.4379,,0,270,270,31,1,X, , , , ,,1500,1.5,,001,2021-08-19_16h54.01.913,natb3,2021.2.3,MacIntel,60.14675809,6111582fe881af862128feb5,611e07ecdcc96256ae8d5b80,611e7d56d5f319c71d62757a,
,,,,space,0.4165,,0,271,271,117,1,T, , , , ,space,2500,2.5,,001,2021-08-19_16h54.01.913,natb3,2021.2.3,MacIntel,60.14675809,6111582fe881af862128feb5,611e07ecdcc96256ae8d5b80,611e7d56d5f319c71d62757a,
,,,,,,,0,272,272,82,1,X,4,6,1,7,,2000,2,,001,2021-08-19_16h54.01.913,natb3,2021.2.3,MacIntel,60.14675809,6111582fe881af862128feb5,611e07ecdcc96256ae8d5b80,611e7d56d5f319c71d62757a,
,,,,space,0.5145,,0,273,273,275,1,G, , , , ,space,1500,1.5,,001,2021-08-19_16h54.01.913,natb3,2021.2.3,MacIntel,60.14675809,6111582fe881af862128feb5,611e07ecdcc96256ae8d5b80,611e7d56d5f319c71d62757a,
,,,,space,0.3835,,0,274,274,21,1,J, , , , ,space,1500,1.5,,001,2021-08-19_16h54.01.913,natb3,2021.2.3,MacIntel,60.14675809,6111582fe881af862128feb5,611e07ecdcc96256ae8d5b80,611e7d56d5f319c71d62757a,
,,,,space,0.8148,,0,275,275,286,1,N, , , , ,space,1500,1.5,,001,2021-08-19_16h54.01.913,natb3,2021.2.3,MacIntel,60.14675809,6111582fe881af862128feb5,611e07ecdcc96256ae8d5b80,611e7d56d5f319c71d62757a,
,,,,space,0.3824,,0,276,276,85,1,F, , , , ,space,2500,2.5,,001,2021-08-19_16h54.01.913,natb3,2021.2.3,MacIntel,60.14675809,6111582fe881af862128feb5,611e07ecdcc96256ae8d5b80,611e7d56d5f319c71d62757a,
,,,,space,0.4504,,0,277,277,214,1,W, , , , ,space,2000,2,,001,2021-08-19_16h54.01.913,natb3,2021.2.3,MacIntel,60.14675809,6111582fe881af862128feb5,611e07ecdcc96256ae8d5b80,611e7d56d5f319c71d62757a,
,,,,,,,0,278,278,107,1,X,9,3, ,2,,2000,2,,001,2021-08-19_16h54.01.913,natb3,2021.2.3,MacIntel,60.14675809,6111582fe881af862128feb5,611e07ecdcc96256ae8d5b80,611e7d56d5f319c71d62757a,
,,,,space,0.45,,0,279,279,246,1,L, , , , ,space,2500,2.5,,001,2021-08-19_16h54.01.913,natb3,2021.2.3,MacIntel,60.14675809,6111582fe881af862128feb5,611e07ecdcc96256ae8d5b80,611e7d56d5f319c71d62757a,
,,,,space,0.4842,,0,280,280,317,1,C, , , , ,space,2000,2,,001,2021-08-19_16h54.01.913,natb3,2021.2.3,MacIntel,60.14675809,6111582fe881af862128feb5,611e07ecdcc96256ae8d5b80,611e7d56d5f319c71d62757a,
,,,,space,0.4657,,0,281,281,3,1,R, , , , ,space,2000,2,,001,2021-08-19_16h54.01.913,natb3,2021.2.3,MacIntel,60.14675809,6111582fe881af862128feb5,611e07ecdcc96256ae8d5b80,611e7d56d5f319c71d62757a,
,,,,space,0.3822,,0,282,282,10,1,O, , , , ,space,2000,2,,001,2021-08-19_16h54.01.913,natb3,2021.2.3,MacIntel,60.14675809,6111582fe881af862128feb5,611e07ecdcc96256ae8d5b80,611e7d56d5f319c71d62757a,
,,,,,,,0,283,283,54,1,X, , , , ,,2000,2,,001,2021-08-19_16h54.01.913,natb3,2021.2.3,MacIntel,60.14675809,6111582fe881af862128feb5,611e07ecdcc96256ae8d5b80,611e7d56d5f319c71d62757a,
,,,,space,0.4501,,0,284,284,160,1,D, , , , ,space,1500,1.5,,001,2021-08-19_16h54.01.913,natb3,2021.2.3,MacIntel,60.14675809,6111582fe881af862128feb5,611e07ecdcc96256ae8d5b80,611e7d56d5f319c71d62757a,
,,,,space,0.3867,,0,285,285,130,1,F, , , , ,space,2000,2,,001,2021-08-19_16h54.01.913,natb3,2021.2.3,MacIntel,60.14675809,6111582fe881af862128feb5,611e07ecdcc96256ae8d5b80,611e7d56d5f319c71d62757a,
,,,,space,0.3704,,0,286,286,260,1,R, , , , ,space,2000,2,,001,2021-08-19_16h54.01.913,natb3,2021.2.3,MacIntel,60.14675809,6111582fe881af862128feb5,611e07ecdcc96256ae8d5b80,611e7d56d5f319c71d62757a,
,,,,,,,0,287,287,322,1,X, , ,1,6,,2000,2,,001,2021-08-19_16h54.01.913,natb3,2021.2.3,MacIntel,60.14675809,6111582fe881af862128feb5,611e07ecdcc96256ae8d5b80,611e7d56d5f319c71d62757a,
,,,,,,,0,288,288,133,1,X, ,4, ,6,,2500,2.5,,001,2021-08-19_16h54.01.913,natb3,2021.2.3,MacIntel,60.14675809,6111582fe881af862128feb5,611e07ecdcc96256ae8d5b80,611e7d56d5f319c71d62757a,
,,,,space,0.5189,,0,289,289,1,1,W, , , , ,space,2000,2,,001,2021-08-19_16h54.01.913,natb3,2021.2.3,MacIntel,60.14675809,6111582fe881af862128feb5,611e07ecdcc96256ae8d5b80,611e7d56d5f319c71d62757a,
,,,,space,0.5355,,0,290,290,280,1,L, , , , ,space,1500,1.5,,001,2021-08-19_16h54.01.913,natb3,2021.2.3,MacIntel,60.14675809,6111582fe881af862128feb5,611e07ecdcc96256ae8d5b80,611e7d56d5f319c71d62757a,
,,,,space,0.4177,,0,291,291,326,1,W, , , , ,space,2000,2,,001,2021-08-19_16h54.01.913,natb3,2021.2.3,MacIntel,60.14675809,6111582fe881af862128feb5,611e07ecdcc96256ae8d5b80,611e7d56d5f319c71d62757a,
,,,,,,,0,292,292,98,1,X, , , , ,,2500,2.5,,001,2021-08-19_16h54.01.913,natb3,2021.2.3,MacIntel,60.14675809,6111582fe881af862128feb5,611e07ecdcc96256ae8d5b80,611e7d56d5f319c71d62757a,
,,,,,,,0,293,293,291,1,X, , , , ,,2000,2,,001,2021-08-19_16h54.01.913,natb3,2021.2.3,MacIntel,60.14675809,6111582fe881af862128feb5,611e07ecdcc96256ae8d5b80,611e7d56d5f319c71d62757a,
,,,,space,0.3938,,0,294,294,328,1,R, , , , ,space,1500,1.5,,001,2021-08-19_16h54.01.913,natb3,2021.2.3,MacIntel,60.14675809,6111582fe881af862128feb5,611e07ecdcc96256ae8d5b80,611e7d56d5f319c71d62757a,
,,,,space,0.4159,,0,295,295,120,1,U, , , , ,space,1500,1.5,,001,2021-08-19_16h54.01.913,natb3,2021.2.3,MacIntel,60.14675809,6111582fe881af862128feb5,611e07ecdcc96256ae8d5b80,611e7d56d5f319c71d62757a,
,,,,space,0.3506,,0,296,296,257,1,W, , , , ,space,2000,2,,001,2021-08-19_16h54.01.913,natb3,2021.2.3,MacIntel,60.14675809,6111582fe881af862128feb5,611e07ecdcc96256ae8d5b80,611e7d56d5f319c71d62757a,
,,,,space,0.3823,,0,297,297,330,1,T, , , , ,space,2500,2.5,,001,2021-08-19_16h54.01.913,natb3,2021.2.3,MacIntel,60.14675809,6111582fe881af862128feb5,611e07ecdcc96256ae8d5b80,611e7d56d5f319c71d62757a,
,,,,space,0.3844,,0,298,298,256,1,Q, , , , ,space,2000,2,,001,2021-08-19_16h54.01.913,natb3,2021.2.3,MacIntel,60.14675809,6111582fe881af862128feb5,611e07ecdcc96256ae8d5b80,611e7d56d5f319c71d62757a,
,,,,space,0.3496,,0,299,299,56,1,J, , , , ,space,1500,1.5,,001,2021-08-19_16h54.01.913,natb3,2021.2.3,MacIntel,60.14675809,6111582fe881af862128feb5,611e07ecdcc96256ae8d5b80,611e7d56d5f319c71d62757a,
,,,,space,0.3677,,0,300,300,183,1,R, , , , ,space,1500,1.5,,001,2021-08-19_16h54.01.913,natb3,2021.2.3,MacIntel,60.14675809,6111582fe881af862128feb5,611e07ecdcc96256ae8d5b80,611e7d56d5f319c71d62757a,
,,,,space,0.3496,,0,301,301,58,1,L, , , , ,space,2000,2,,001,2021-08-19_16h54.01.913,natb3,2021.2.3,MacIntel,60.14675809,6111582fe881af862128feb5,611e07ecdcc96256ae8d5b80,611e7d56d5f319c71d62757a,
,,,,space,0.3244,,0,302,302,197,1,G, , , , ,space,2500,2.5,,001,2021-08-19_16h54.01.913,natb3,2021.2.3,MacIntel,60.14675809,6111582fe881af862128feb5,611e07ecdcc96256ae8d5b80,611e7d56d5f319c71d62757a,
,,,,space,0.3534,,0,303,303,288,1,M, , , , ,space,1500,1.5,,001,2021-08-19_16h54.01.913,natb3,2021.2.3,MacIntel,60.14675809,6111582fe881af862128feb5,611e07ecdcc96256ae8d5b80,611e7d56d5f319c71d62757a,
,,,,space,0.3663,,0,304,304,178,1,Q, , , , ,space,1500,1.5,,001,2021-08-19_16h54.01.913,natb3,2021.2.3,MacIntel,60.14675809,6111582fe881af862128feb5,611e07ecdcc96256ae8d5b80,611e7d56d5f319c71d62757a,
,,,,space,0.3515,,0,305,305,238,1,D, , , , ,space,1500,1.5,,001,2021-08-19_16h54.01.913,natb3,2021.2.3,MacIntel,60.14675809,6111582fe881af862128feb5,611e07ecdcc96256ae8d5b80,611e7d56d5f319c71d62757a,
,,,,space,0.4335,,0,306,306,247,1,Z, , , , ,space,1500,1.5,,001,2021-08-19_16h54.01.913,natb3,2021.2.3,MacIntel,60.14675809,6111582fe881af862128feb5,611e07ecdcc96256ae8d5b80,611e7d56d5f319c71d62757a,
,,,,space,0.3723,,0,307,307,251,1,B, , , , ,space,1500,1.5,,001,2021-08-19_16h54.01.913,natb3,2021.2.3,MacIntel,60.14675809,6111582fe881af862128feb5,611e07ecdcc96256ae8d5b80,611e7d56d5f319c71d62757a,
,,,,,,,0,308,308,229,1,X,8, ,2,6,,2500,2.5,,001,2021-08-19_16h54.01.913,natb3,2021.2.3,MacIntel,60.14675809,6111582fe881af862128feb5,611e07ecdcc96256ae8d5b80,611e7d56d5f319c71d62757a,
,,,,space,0.4198,,0,309,309,224,1,W, , , , ,space,1500,1.5,,001,2021-08-19_16h54.01.913,natb3,2021.2.3,MacIntel,60.14675809,6111582fe881af862128feb5,611e07ecdcc96256ae8d5b80,611e7d56d5f319c71d62757a,
,,,,space,0.3659,,0,310,310,270,1,S, , , , ,space,1500,1.5,,001,2021-08-19_16h54.01.913,natb3,2021.2.3,MacIntel,60.14675809,6111582fe881af862128feb5,611e07ecdcc96256ae8d5b80,611e7d56d5f319c71d62757a,
,,,,space,0.4041,,0,311,311,95,1,V, , , , ,space,1500,1.5,,001,2021-08-19_16h54.01.913,natb3,2021.2.3,MacIntel,60.14675809,6111582fe881af862128feb5,611e07ecdcc96256ae8d5b80,611e7d56d5f319c71d62757a,
,,,,,,,0,312,312,33,1,X, , , , ,,1500,1.5,,001,2021-08-19_16h54.01.913,natb3,2021.2.3,MacIntel,60.14675809,6111582fe881af862128feb5,611e07ecdcc96256ae8d5b80,611e7d56d5f319c71d62757a,
,,,,space,0.4212,,0,313,313,41,1,Y, , , , ,space,2500,2.5,,001,2021-08-19_16h54.01.913,natb3,2021.2.3,MacIntel,60.14675809,6111582fe881af862128feb5,611e07ecdcc96256ae8d5b80,611e7d56d5f319c71d62757a,
,,,,space,0.4185,,0,314,314,215,1,E, , , , ,space,2500,2.5,,001,2021-08-19_16h54.01.913,natb3,2021.2.3,MacIntel,60.14675809,6111582fe881af862128feb5,611e07ecdcc96256ae8d5b80,611e7d56d5f319c71d62757a,
,,,,,,,0,315,315,218,1,X,1,3, ,8,,1500,1.5,,001,2021-08-19_16h54.01.913,natb3,2021.2.3,MacIntel,60.14675809,6111582fe881af862128feb5,611e07ecdcc96256ae8d5b80,611e7d56d5f319c71d62757a,
,,,,space,0.3816,,0,316,316,24,1,L, , , , ,space,2500,2.5,,001,2021-08-19_16h54.01.913,natb3,2021.2.3,MacIntel,60.14675809,6111582fe881af862128feb5,611e07ecdcc96256ae8d5b80,611e7d56d5f319c71d62757a,
,,,,,,,0,317,317,60,1,X,7,3,5, ,,1500,1.5,,001,2021-08-19_16h54.01.913,natb3,2021.2.3,MacIntel,60.14675809,6111582fe881af862128feb5,611e07ecdcc96256ae8d5b80,611e7d56d5f319c71d62757a,
,,,,space,0.4159,,0,318,318,327,1,E, , , , ,space,1500,1.5,,001,2021-08-19_16h54.01.913,natb3,2021.2.3,MacIntel,60.14675809,6111582fe881af862128feb5,611e07ecdcc96256ae8d5b80,611e7d56d5f319c71d62757a,
,,,,space,0.4373,,0,319,319,284,1,V, , , , ,space,2500,2.5,,001,2021-08-19_16h54.01.913,natb3,2021.2.3,MacIntel,60.14675809,6111582fe881af862128feb5,611e07ecdcc96256ae8d5b80,611e7d56d5f319c71d62757a,
,,,,,,,0,320,320,325,1,X, , , , ,,2500,2.5,,001,2021-08-19_16h54.01.913,natb3,2021.2.3,MacIntel,60.14675809,6111582fe881af862128feb5,611e07ecdcc96256ae8d5b80,611e7d56d5f319c71d62757a,
,,,,,,,0,321,321,179,1,X, ,9, ,2,,1500,1.5,,001,2021-08-19_16h54.01.913,natb3,2021.2.3,MacIntel,60.14675809,6111582fe881af862128feb5,611e07ecdcc96256ae8d5b80,611e7d56d5f319c71d62757a,
,,,,,,,0,322,322,287,1,X, ,2, ,9,,2000,2,,001,2021-08-19_16h54.01.913,natb3,2021.2.3,MacIntel,60.14675809,6111582fe881af862128feb5,611e07ecdcc96256ae8d5b80,611e7d56d5f319c71d62757a,
,,,,,,,0,323,323,15,1,X, , , , ,,1500,1.5,,001,2021-08-19_16h54.01.913,natb3,2021.2.3,MacIntel,60.14675809,6111582fe881af862128feb5,611e07ecdcc96256ae8d5b80,611e7d56d5f319c71d62757a,
,,,,space,0.416,,0,324,324,174,1,B, , , , ,space,2500,2.5,,001,2021-08-19_16h54.01.913,natb3,2021.2.3,MacIntel,60.14675809,6111582fe881af862128feb5,611e07ecdcc96256ae8d5b80,611e7d56d5f319c71d62757a,
,,,,space,0.4169,,0,325,325,61,1,C, , , , ,space,2000,2,,001,2021-08-19_16h54.01.913,natb3,2021.2.3,MacIntel,60.14675809,6111582fe881af862128feb5,611e07ecdcc96256ae8d5b80,611e7d56d5f319c71d62757a,
,,,,space,0.3518,,0,326,326,83,1,D, , , , ,space,2000,2,,001,2021-08-19_16h54.01.913,natb3,2021.2.3,MacIntel,60.14675809,6111582fe881af862128feb5,611e07ecdcc96256ae8d5b80,611e7d56d5f319c71d62757a,
,,,,space,0.3694,,0,327,327,86,1,G, , , , ,space,2000,2,,001,2021-08-19_16h54.01.913,natb3,2021.2.3,MacIntel,60.14675809,6111582fe881af862128feb5,611e07ecdcc96256ae8d5b80,611e7d56d5f319c71d62757a,
,,,,,,,0,328,328,273,1,X, , , , ,,2000,2,,001,2021-08-19_16h54.01.913,natb3,2021.2.3,MacIntel,60.14675809,6111582fe881af862128feb5,611e07ecdcc96256ae8d5b80,611e7d56d5f319c71d62757a,
,,,,space,0.4225,,0,329,329,50,1,D, , , , ,space,1500,1.5,,001,2021-08-19_16h54.01.913,natb3,2021.2.3,MacIntel,60.14675809,6111582fe881af862128feb5,611e07ecdcc96256ae8d5b80,611e7d56d5f319c71d62757a,
,,,,space,0.388,,0,330,330,142,1,N, , , , ,space,2500,2.5,,001,2021-08-19_16h54.01.913,natb3,2021.2.3,MacIntel,60.14675809,6111582fe881af862128feb5,611e07ecdcc96256ae8d5b80,611e7d56d5f319c71d62757a,
,,,,space,0.397,,0,331,331,147,1,E, , , , ,space,2000,2,,001,2021-08-19_16h54.01.913,natb3,2021.2.3,MacIntel,60.14675809,6111582fe881af862128feb5,611e07ecdcc96256ae8d5b80,611e7d56d5f319c71d62757a,
,,,,space,0.4189,,0,332,332,209,1,N, , , , ,space,2000,2,,001,2021-08-19_16h54.01.913,natb3,2021.2.3,MacIntel,60.14675809,6111582fe881af862128feb5,611e07ecdcc96256ae8d5b80,611e7d56d5f319c71d62757a,
,,,,space,0.3862,,0,333,333,172,1,C, , , , ,space,1500,1.5,,001,2021-08-19_16h54.01.913,natb3,2021.2.3,MacIntel,60.14675809,6111582fe881af862128feb5,611e07ecdcc96256ae8d5b80,611e7d56d5f319c71d62757a,
,,,,,,,0,334,334,18,1,X, ,2,5,8,,2500,2.5,,001,2021-08-19_16h54.01.913,natb3,2021.2.3,MacIntel,60.14675809,6111582fe881af862128feb5,611e07ecdcc96256ae8d5b80,611e7d56d5f319c71d62757a,
,,,,space,0.4331,,0,335,335,285,1,B, , , , ,space,1500,1.5,,001,2021-08-19_16h54.01.913,natb3,2021.2.3,MacIntel,60.14675809,6111582fe881af862128feb5,611e07ecdcc96256ae8d5b80,611e7d56d5f319c71d62757a,
