key_resp_2.keys,key_resp_2.rt,key_resp_3.keys,key_resp_3.rt,key_resp.keys,key_resp_4.keys,trials.thisRepN,trials.thisTrialN,trials.thisN,trials.thisIndex,trials.ran,stimulus,distractor1,distractor2,distractor3,distractor4,CorrAns,isi_duration,isi_dur_in_seconds,participant,session,date,expName,psychopyVersion,OS,frameRate,PROLIFIC_PID,STUDY_ID,SESSION_ID,key_resp.rt,key_resp_4.rt
return,14.001,space,10.452,,,0,0,0,293,1,R, , , , ,space,2500,2.5,,001,2021-08-17_17h18.04.464,natb3,2021.2.3,MacIntel,62.5,611bcb5abee0cb706ff32d2b,6107d0959f7c4c3641818b95,611be115850b9f6062246fb6,,
,,,,space,,0,1,1,73,1,Y, , , , ,space,2000,2,,001,2021-08-17_17h18.04.464,natb3,2021.2.3,MacIntel,62.5,611bcb5abee0cb706ff32d2b,6107d0959f7c4c3641818b95,611be115850b9f6062246fb6,0.596,
,,,,space,,0,2,2,197,1,G, , , , ,space,2500,2.5,,001,2021-08-17_17h18.04.464,natb3,2021.2.3,MacIntel,62.5,611bcb5abee0cb706ff32d2b,6107d0959f7c4c3641818b95,611be115850b9f6062246fb6,0.427,
,,,,,,0,3,3,27,1,X,5, ,1,3,,1500,1.5,,001,2021-08-17_17h18.04.464,natb3,2021.2.3,MacIntel,62.5,611bcb5abee0cb706ff32d2b,6107d0959f7c4c3641818b95,611be115850b9f6062246fb6,,
,,,,,,0,4,4,302,1,X, , , , ,,2000,2,,001,2021-08-17_17h18.04.464,natb3,2021.2.3,MacIntel,62.5,611bcb5abee0cb706ff32d2b,6107d0959f7c4c3641818b95,611be115850b9f6062246fb6,,
,,,,,,0,5,5,299,1,X, , , , ,,2500,2.5,,001,2021-08-17_17h18.04.464,natb3,2021.2.3,MacIntel,62.5,611bcb5abee0cb706ff32d2b,6107d0959f7c4c3641818b95,611be115850b9f6062246fb6,,
,,,,space,,0,6,6,10,1,O, , , , ,space,2000,2,,001,2021-08-17_17h18.04.464,natb3,2021.2.3,MacIntel,62.5,611bcb5abee0cb706ff32d2b,6107d0959f7c4c3641818b95,611be115850b9f6062246fb6,0.461,
,,,,,,0,7,7,39,1,X,6,2, , ,,1500,1.5,,001,2021-08-17_17h18.04.464,natb3,2021.2.3,MacIntel,62.5,611bcb5abee0cb706ff32d2b,6107d0959f7c4c3641818b95,611be115850b9f6062246fb6,,
,,,,space,,0,8,8,258,1,E, , , , ,space,1500,1.5,,001,2021-08-17_17h18.04.464,natb3,2021.2.3,MacIntel,62.5,611bcb5abee0cb706ff32d2b,6107d0959f7c4c3641818b95,611be115850b9f6062246fb6,0.53,
,,,,,,0,9,9,166,1,X, , , , ,,2000,2,,001,2021-08-17_17h18.04.464,natb3,2021.2.3,MacIntel,62.5,611bcb5abee0cb706ff32d2b,6107d0959f7c4c3641818b95,611be115850b9f6062246fb6,,
,,,,space,,0,10,10,224,1,W, , , , ,space,1500,1.5,,001,2021-08-17_17h18.04.464,natb3,2021.2.3,MacIntel,62.5,611bcb5abee0cb706ff32d2b,6107d0959f7c4c3641818b95,611be115850b9f6062246fb6,0.414,
,,,,space,,0,11,11,127,1,S, , , , ,space,2500,2.5,,001,2021-08-17_17h18.04.464,natb3,2021.2.3,MacIntel,62.5,611bcb5abee0cb706ff32d2b,6107d0959f7c4c3641818b95,611be115850b9f6062246fb6,0.578,
,,,,,,0,12,12,329,1,X,3,4, ,2,,2500,2.5,,001,2021-08-17_17h18.04.464,natb3,2021.2.3,MacIntel,62.5,611bcb5abee0cb706ff32d2b,6107d0959f7c4c3641818b95,611be115850b9f6062246fb6,,
,,,,,,0,13,13,31,1,X, , , , ,,1500,1.5,,001,2021-08-17_17h18.04.464,natb3,2021.2.3,MacIntel,62.5,611bcb5abee0cb706ff32d2b,6107d0959f7c4c3641818b95,611be115850b9f6062246fb6,,
,,,,space,,0,14,14,244,1,J, , , , ,space,1500,1.5,,001,2021-08-17_17h18.04.464,natb3,2021.2.3,MacIntel,62.5,611bcb5abee0cb706ff32d2b,6107d0959f7c4c3641818b95,611be115850b9f6062246fb6,0.461,
,,,,space,,0,15,15,309,1,H, , , , ,space,2500,2.5,,001,2021-08-17_17h18.04.464,natb3,2021.2.3,MacIntel,62.5,611bcb5abee0cb706ff32d2b,6107d0959f7c4c3641818b95,611be115850b9f6062246fb6,0.377,
,,,,space,,0,16,16,67,1,Q, , , , ,space,2000,2,,001,2021-08-17_17h18.04.464,natb3,2021.2.3,MacIntel,62.5,611bcb5abee0cb706ff32d2b,6107d0959f7c4c3641818b95,611be115850b9f6062246fb6,0.563,
,,,,space,,0,17,17,267,1,P, , , , ,space,2000,2,,001,2021-08-17_17h18.04.464,natb3,2021.2.3,MacIntel,62.5,611bcb5abee0cb706ff32d2b,6107d0959f7c4c3641818b95,611be115850b9f6062246fb6,0.6,
,,,,space,,0,18,18,241,1,G, , , , ,space,2500,2.5,,001,2021-08-17_17h18.04.464,natb3,2021.2.3,MacIntel,62.5,611bcb5abee0cb706ff32d2b,6107d0959f7c4c3641818b95,611be115850b9f6062246fb6,0.591,
,,,,,,0,19,19,84,1,X, , , , ,,2000,2,,001,2021-08-17_17h18.04.464,natb3,2021.2.3,MacIntel,62.5,611bcb5abee0cb706ff32d2b,6107d0959f7c4c3641818b95,611be115850b9f6062246fb6,,
,,,,space,,0,20,20,201,1,K, , , , ,space,1500,1.5,,001,2021-08-17_17h18.04.464,natb3,2021.2.3,MacIntel,62.5,611bcb5abee0cb706ff32d2b,6107d0959f7c4c3641818b95,611be115850b9f6062246fb6,0.423,
,,,,space,,0,21,21,152,1,U, , , , ,space,2000,2,,001,2021-08-17_17h18.04.464,natb3,2021.2.3,MacIntel,62.5,611bcb5abee0cb706ff32d2b,6107d0959f7c4c3641818b95,611be115850b9f6062246fb6,0.596,
,,,,space,,0,22,22,165,1,J, , , , ,space,2500,2.5,,001,2021-08-17_17h18.04.464,natb3,2021.2.3,MacIntel,62.5,611bcb5abee0cb706ff32d2b,6107d0959f7c4c3641818b95,611be115850b9f6062246fb6,0.463,
,,,,space,,0,23,23,215,1,E, , , , ,space,2500,2.5,,001,2021-08-17_17h18.04.464,natb3,2021.2.3,MacIntel,62.5,611bcb5abee0cb706ff32d2b,6107d0959f7c4c3641818b95,611be115850b9f6062246fb6,0.468,
,,,,,,0,24,24,200,1,X,7, ,5,3,,1500,1.5,,001,2021-08-17_17h18.04.464,natb3,2021.2.3,MacIntel,62.5,611bcb5abee0cb706ff32d2b,6107d0959f7c4c3641818b95,611be115850b9f6062246fb6,,
,,,,space,,0,25,25,250,1,V, , , , ,space,2000,2,,001,2021-08-17_17h18.04.464,natb3,2021.2.3,MacIntel,62.5,611bcb5abee0cb706ff32d2b,6107d0959f7c4c3641818b95,611be115850b9f6062246fb6,0.468,
,,,,space,,0,26,26,160,1,D, , , , ,space,1500,1.5,,001,2021-08-17_17h18.04.464,natb3,2021.2.3,MacIntel,62.5,611bcb5abee0cb706ff32d2b,6107d0959f7c4c3641818b95,611be115850b9f6062246fb6,0.433,
,,,,space,,0,27,27,169,1,L, , , , ,space,2500,2.5,,001,2021-08-17_17h18.04.464,natb3,2021.2.3,MacIntel,62.5,611bcb5abee0cb706ff32d2b,6107d0959f7c4c3641818b95,611be115850b9f6062246fb6,0.491,
,,,,space,,0,28,28,99,1,N, , , , ,space,2500,2.5,,001,2021-08-17_17h18.04.464,natb3,2021.2.3,MacIntel,62.5,611bcb5abee0cb706ff32d2b,6107d0959f7c4c3641818b95,611be115850b9f6062246fb6,0.428,
,,,,space,,0,29,29,115,1,R, , , , ,space,1500,1.5,,001,2021-08-17_17h18.04.464,natb3,2021.2.3,MacIntel,62.5,611bcb5abee0cb706ff32d2b,6107d0959f7c4c3641818b95,611be115850b9f6062246fb6,0.467,
,,,,,,0,30,30,153,1,X,4,7, ,6,,2000,2,,001,2021-08-17_17h18.04.464,natb3,2021.2.3,MacIntel,62.5,611bcb5abee0cb706ff32d2b,6107d0959f7c4c3641818b95,611be115850b9f6062246fb6,,
,,,,space,,0,31,31,312,1,K, , , , ,space,2000,2,,001,2021-08-17_17h18.04.464,natb3,2021.2.3,MacIntel,62.5,611bcb5abee0cb706ff32d2b,6107d0959f7c4c3641818b95,611be115850b9f6062246fb6,0.491,
,,,,space,,0,32,32,30,1,N, , , , ,space,2500,2.5,,001,2021-08-17_17h18.04.464,natb3,2021.2.3,MacIntel,62.5,611bcb5abee0cb706ff32d2b,6107d0959f7c4c3641818b95,611be115850b9f6062246fb6,0.529,
,,,,space,,0,33,33,272,1,D, , , , ,space,2000,2,,001,2021-08-17_17h18.04.464,natb3,2021.2.3,MacIntel,62.5,611bcb5abee0cb706ff32d2b,6107d0959f7c4c3641818b95,611be115850b9f6062246fb6,0.454,
,,,,space,,0,34,34,178,1,Q, , , , ,space,1500,1.5,,001,2021-08-17_17h18.04.464,natb3,2021.2.3,MacIntel,62.5,611bcb5abee0cb706ff32d2b,6107d0959f7c4c3641818b95,611be115850b9f6062246fb6,0.788,
,,,,,,0,35,35,125,1,X, , , , ,,2000,2,,001,2021-08-17_17h18.04.464,natb3,2021.2.3,MacIntel,62.5,611bcb5abee0cb706ff32d2b,6107d0959f7c4c3641818b95,611be115850b9f6062246fb6,,
,,,,space,,0,36,36,308,1,G, , , , ,space,1500,1.5,,001,2021-08-17_17h18.04.464,natb3,2021.2.3,MacIntel,62.5,611bcb5abee0cb706ff32d2b,6107d0959f7c4c3641818b95,611be115850b9f6062246fb6,0.471,
,,,,space,,0,37,37,314,1,L, , , , ,space,1500,1.5,,001,2021-08-17_17h18.04.464,natb3,2021.2.3,MacIntel,62.5,611bcb5abee0cb706ff32d2b,6107d0959f7c4c3641818b95,611be115850b9f6062246fb6,0.506,
,,,,,,0,38,38,98,1,X, , , , ,,2500,2.5,,001,2021-08-17_17h18.04.464,natb3,2021.2.3,MacIntel,62.5,611bcb5abee0cb706ff32d2b,6107d0959f7c4c3641818b95,611be115850b9f6062246fb6,,
,,,,space,,0,39,39,283,1,C, , , , ,space,1500,1.5,,001,2021-08-17_17h18.04.464,natb3,2021.2.3,MacIntel,62.5,611bcb5abee0cb706ff32d2b,6107d0959f7c4c3641818b95,611be115850b9f6062246fb6,0.574,
,,,,space,,0,40,40,235,1,A, , , , ,space,1500,1.5,,001,2021-08-17_17h18.04.464,natb3,2021.2.3,MacIntel,62.5,611bcb5abee0cb706ff32d2b,6107d0959f7c4c3641818b95,611be115850b9f6062246fb6,0.916,
,,,,space,,0,41,41,172,1,C, , , , ,space,1500,1.5,,001,2021-08-17_17h18.04.464,natb3,2021.2.3,MacIntel,62.5,611bcb5abee0cb706ff32d2b,6107d0959f7c4c3641818b95,611be115850b9f6062246fb6,0.579,
,,,,space,,0,42,42,286,1,N, , , , ,space,1500,1.5,,001,2021-08-17_17h18.04.464,natb3,2021.2.3,MacIntel,62.5,611bcb5abee0cb706ff32d2b,6107d0959f7c4c3641818b95,611be115850b9f6062246fb6,0.483,
,,,,space,,0,43,43,161,1,F, , , , ,space,1500,1.5,,001,2021-08-17_17h18.04.464,natb3,2021.2.3,MacIntel,62.5,611bcb5abee0cb706ff32d2b,6107d0959f7c4c3641818b95,611be115850b9f6062246fb6,0.828,
,,,,,,0,44,44,133,1,X, ,4, ,6,,2500,2.5,,001,2021-08-17_17h18.04.464,natb3,2021.2.3,MacIntel,62.5,611bcb5abee0cb706ff32d2b,6107d0959f7c4c3641818b95,611be115850b9f6062246fb6,,
,,,,space,,0,45,45,288,1,M, , , , ,space,1500,1.5,,001,2021-08-17_17h18.04.464,natb3,2021.2.3,MacIntel,62.5,611bcb5abee0cb706ff32d2b,6107d0959f7c4c3641818b95,611be115850b9f6062246fb6,0.397,
,,,,,,0,46,46,145,1,X, , , , ,,2000,2,,001,2021-08-17_17h18.04.464,natb3,2021.2.3,MacIntel,62.5,611bcb5abee0cb706ff32d2b,6107d0959f7c4c3641818b95,611be115850b9f6062246fb6,,
,,,,,,0,47,47,335,1,P,,,,,space,1500,1.5,,001,2021-08-17_17h18.04.464,natb3,2021.2.3,MacIntel,62.5,611bcb5abee0cb706ff32d2b,6107d0959f7c4c3641818b95,611be115850b9f6062246fb6,,
,,,,space,,0,48,48,97,1,B, , , , ,space,2500,2.5,,001,2021-08-17_17h18.04.464,natb3,2021.2.3,MacIntel,62.5,611bcb5abee0cb706ff32d2b,6107d0959f7c4c3641818b95,611be115850b9f6062246fb6,0.533,
,,,,space,,0,49,49,0,1,Q, , , , ,space,1500,1.5,,001,2021-08-17_17h18.04.464,natb3,2021.2.3,MacIntel,62.5,611bcb5abee0cb706ff32d2b,6107d0959f7c4c3641818b95,611be115850b9f6062246fb6,0.691,
,,,,,,0,50,50,315,1,X, , , , ,,2500,2.5,,001,2021-08-17_17h18.04.464,natb3,2021.2.3,MacIntel,62.5,611bcb5abee0cb706ff32d2b,6107d0959f7c4c3641818b95,611be115850b9f6062246fb6,,
,,,,space,,0,51,51,194,1,D, , , , ,space,2000,2,,001,2021-08-17_17h18.04.464,natb3,2021.2.3,MacIntel,62.5,611bcb5abee0cb706ff32d2b,6107d0959f7c4c3641818b95,611be115850b9f6062246fb6,0.421,
,,,,space,,0,52,52,216,1,R, , , , ,space,1500,1.5,,001,2021-08-17_17h18.04.464,natb3,2021.2.3,MacIntel,62.5,611bcb5abee0cb706ff32d2b,6107d0959f7c4c3641818b95,611be115850b9f6062246fb6,0.845,
,,,,,,0,53,53,60,1,X,7,3,5, ,,1500,1.5,,001,2021-08-17_17h18.04.464,natb3,2021.2.3,MacIntel,62.5,611bcb5abee0cb706ff32d2b,6107d0959f7c4c3641818b95,611be115850b9f6062246fb6,,
,,,,space,,0,54,54,44,1,I, , , , ,space,2500,2.5,,001,2021-08-17_17h18.04.464,natb3,2021.2.3,MacIntel,62.5,611bcb5abee0cb706ff32d2b,6107d0959f7c4c3641818b95,611be115850b9f6062246fb6,0.56,
,,,,space,,0,55,55,50,1,D, , , , ,space,1500,1.5,,001,2021-08-17_17h18.04.464,natb3,2021.2.3,MacIntel,62.5,611bcb5abee0cb706ff32d2b,6107d0959f7c4c3641818b95,611be115850b9f6062246fb6,0.432,
,,,,space,,0,56,56,85,1,F, , , , ,space,2500,2.5,,001,2021-08-17_17h18.04.464,natb3,2021.2.3,MacIntel,62.5,611bcb5abee0cb706ff32d2b,6107d0959f7c4c3641818b95,611be115850b9f6062246fb6,0.485,
,,,,space,,0,57,57,217,1,T, , , , ,space,2500,2.5,,001,2021-08-17_17h18.04.464,natb3,2021.2.3,MacIntel,62.5,611bcb5abee0cb706ff32d2b,6107d0959f7c4c3641818b95,611be115850b9f6062246fb6,0.412,
,,,,space,,0,58,58,144,1,Q, , , , ,space,2500,2.5,,001,2021-08-17_17h18.04.464,natb3,2021.2.3,MacIntel,62.5,611bcb5abee0cb706ff32d2b,6107d0959f7c4c3641818b95,611be115850b9f6062246fb6,0.364,
,,,,space,,0,59,59,40,1,T, , , , ,space,1500,1.5,,001,2021-08-17_17h18.04.464,natb3,2021.2.3,MacIntel,62.5,611bcb5abee0cb706ff32d2b,6107d0959f7c4c3641818b95,611be115850b9f6062246fb6,0.401,
,,,,space,,0,60,60,316,1,Z, , , , ,space,1500,1.5,,001,2021-08-17_17h18.04.464,natb3,2021.2.3,MacIntel,62.5,611bcb5abee0cb706ff32d2b,6107d0959f7c4c3641818b95,611be115850b9f6062246fb6,0.426,
,,,,,,0,61,61,236,1,X,3, ,4,7,,2500,2.5,,001,2021-08-17_17h18.04.464,natb3,2021.2.3,MacIntel,62.5,611bcb5abee0cb706ff32d2b,6107d0959f7c4c3641818b95,611be115850b9f6062246fb6,,
,,,,space,,0,62,62,94,1,C, , , , ,space,2000,2,,001,2021-08-17_17h18.04.464,natb3,2021.2.3,MacIntel,62.5,611bcb5abee0cb706ff32d2b,6107d0959f7c4c3641818b95,611be115850b9f6062246fb6,0.458,
,,,,space,,0,63,63,8,1,U, , , , ,space,1500,1.5,,001,2021-08-17_17h18.04.464,natb3,2021.2.3,MacIntel,62.5,611bcb5abee0cb706ff32d2b,6107d0959f7c4c3641818b95,611be115850b9f6062246fb6,0.36,
,,,,space,,0,64,64,278,1,J, , , , ,space,2000,2,,001,2021-08-17_17h18.04.464,natb3,2021.2.3,MacIntel,62.5,611bcb5abee0cb706ff32d2b,6107d0959f7c4c3641818b95,611be115850b9f6062246fb6,0.437,
,,,,space,,0,65,65,260,1,R, , , , ,space,2000,2,,001,2021-08-17_17h18.04.464,natb3,2021.2.3,MacIntel,62.5,611bcb5abee0cb706ff32d2b,6107d0959f7c4c3641818b95,611be115850b9f6062246fb6,0.433,
,,,,,,0,66,66,102,1,X, ,6, , ,,1500,1.5,,001,2021-08-17_17h18.04.464,natb3,2021.2.3,MacIntel,62.5,611bcb5abee0cb706ff32d2b,6107d0959f7c4c3641818b95,611be115850b9f6062246fb6,,
,,,,space,,0,67,67,254,1,M, , , , ,space,1500,1.5,,001,2021-08-17_17h18.04.464,natb3,2021.2.3,MacIntel,62.5,611bcb5abee0cb706ff32d2b,6107d0959f7c4c3641818b95,611be115850b9f6062246fb6,0.517,
,,,,,,0,68,68,122,1,X,1, , ,8,,1500,1.5,,001,2021-08-17_17h18.04.464,natb3,2021.2.3,MacIntel,62.5,611bcb5abee0cb706ff32d2b,6107d0959f7c4c3641818b95,611be115850b9f6062246fb6,,
,,,,space,,0,69,69,57,1,K, , , , ,space,2500,2.5,,001,2021-08-17_17h18.04.464,natb3,2021.2.3,MacIntel,62.5,611bcb5abee0cb706ff32d2b,6107d0959f7c4c3641818b95,611be115850b9f6062246fb6,0.372,
,,,,space,,0,70,70,29,1,B, , , , ,space,1500,1.5,,001,2021-08-17_17h18.04.464,natb3,2021.2.3,MacIntel,62.5,611bcb5abee0cb706ff32d2b,6107d0959f7c4c3641818b95,611be115850b9f6062246fb6,0.447,
,,,,space,,0,71,71,253,1,N, , , , ,space,2500,2.5,,001,2021-08-17_17h18.04.464,natb3,2021.2.3,MacIntel,62.5,611bcb5abee0cb706ff32d2b,6107d0959f7c4c3641818b95,611be115850b9f6062246fb6,0.345,
,,,,,,0,72,72,182,1,X, , , , ,,1500,1.5,,001,2021-08-17_17h18.04.464,natb3,2021.2.3,MacIntel,62.5,611bcb5abee0cb706ff32d2b,6107d0959f7c4c3641818b95,611be115850b9f6062246fb6,,
,,,,space,,0,73,73,92,1,Z, , , , ,space,1500,1.5,,001,2021-08-17_17h18.04.464,natb3,2021.2.3,MacIntel,62.5,611bcb5abee0cb706ff32d2b,6107d0959f7c4c3641818b95,611be115850b9f6062246fb6,0.393,
,,,,space,,0,74,74,135,1,K, , , , ,space,1500,1.5,,001,2021-08-17_17h18.04.464,natb3,2021.2.3,MacIntel,62.5,611bcb5abee0cb706ff32d2b,6107d0959f7c4c3641818b95,611be115850b9f6062246fb6,0.528,
,,,,space,,0,75,75,181,1,E, , , , ,space,1500,1.5,,001,2021-08-17_17h18.04.464,natb3,2021.2.3,MacIntel,62.5,611bcb5abee0cb706ff32d2b,6107d0959f7c4c3641818b95,611be115850b9f6062246fb6,0.394,
,,,,,,0,76,76,74,1,X, ,4,3,2,,1500,1.5,,001,2021-08-17_17h18.04.464,natb3,2021.2.3,MacIntel,62.5,611bcb5abee0cb706ff32d2b,6107d0959f7c4c3641818b95,611be115850b9f6062246fb6,,
,,,,,,0,77,77,287,1,X, ,2, ,9,,2000,2,,001,2021-08-17_17h18.04.464,natb3,2021.2.3,MacIntel,62.5,611bcb5abee0cb706ff32d2b,6107d0959f7c4c3641818b95,611be115850b9f6062246fb6,,
,,,,space,,0,78,78,189,1,O, , , , ,space,1500,1.5,,001,2021-08-17_17h18.04.464,natb3,2021.2.3,MacIntel,62.5,611bcb5abee0cb706ff32d2b,6107d0959f7c4c3641818b95,611be115850b9f6062246fb6,0.403,
,,,,,,0,79,79,195,1,X, , , , ,,1500,1.5,,001,2021-08-17_17h18.04.464,natb3,2021.2.3,MacIntel,62.5,611bcb5abee0cb706ff32d2b,6107d0959f7c4c3641818b95,611be115850b9f6062246fb6,,
,,,,space,,0,80,80,139,1,V, , , , ,space,2000,2,,001,2021-08-17_17h18.04.464,natb3,2021.2.3,MacIntel,62.5,611bcb5abee0cb706ff32d2b,6107d0959f7c4c3641818b95,611be115850b9f6062246fb6,0.494,
,,,,space,,0,81,81,90,1,K, , , , ,space,2000,2,,001,2021-08-17_17h18.04.464,natb3,2021.2.3,MacIntel,62.5,611bcb5abee0cb706ff32d2b,6107d0959f7c4c3641818b95,611be115850b9f6062246fb6,0.454,
,,,,space,,0,82,82,26,1,C, , , , ,space,2000,2,,001,2021-08-17_17h18.04.464,natb3,2021.2.3,MacIntel,62.5,611bcb5abee0cb706ff32d2b,6107d0959f7c4c3641818b95,611be115850b9f6062246fb6,0.417,
,,,,space,,0,83,83,103,1,W, , , , ,space,2000,2,,001,2021-08-17_17h18.04.464,natb3,2021.2.3,MacIntel,62.5,611bcb5abee0cb706ff32d2b,6107d0959f7c4c3641818b95,611be115850b9f6062246fb6,0.574,
,,,,space,,0,84,84,164,1,H, , , , ,space,2500,2.5,,001,2021-08-17_17h18.04.464,natb3,2021.2.3,MacIntel,62.5,611bcb5abee0cb706ff32d2b,6107d0959f7c4c3641818b95,611be115850b9f6062246fb6,0.491,
,,,,space,,0,85,85,101,1,Q, , , , ,space,2500,2.5,,001,2021-08-17_17h18.04.464,natb3,2021.2.3,MacIntel,62.5,611bcb5abee0cb706ff32d2b,6107d0959f7c4c3641818b95,611be115850b9f6062246fb6,0.728,
,,,,space,,0,86,86,121,1,I, , , , ,space,2000,2,,001,2021-08-17_17h18.04.464,natb3,2021.2.3,MacIntel,62.5,611bcb5abee0cb706ff32d2b,6107d0959f7c4c3641818b95,611be115850b9f6062246fb6,0.45,
,,,,space,,0,87,87,91,1,L, , , , ,space,2000,2,,001,2021-08-17_17h18.04.464,natb3,2021.2.3,MacIntel,62.5,611bcb5abee0cb706ff32d2b,6107d0959f7c4c3641818b95,611be115850b9f6062246fb6,0.568,
,,,,space,,0,88,88,22,1,K, , , , ,space,2000,2,,001,2021-08-17_17h18.04.464,natb3,2021.2.3,MacIntel,62.5,611bcb5abee0cb706ff32d2b,6107d0959f7c4c3641818b95,611be115850b9f6062246fb6,0.537,
,,,,space,,0,89,89,234,1,P, , , , ,space,2000,2,,001,2021-08-17_17h18.04.464,natb3,2021.2.3,MacIntel,62.5,611bcb5abee0cb706ff32d2b,6107d0959f7c4c3641818b95,611be115850b9f6062246fb6,0.43,
,,,,space,,0,90,90,251,1,B, , , , ,space,1500,1.5,,001,2021-08-17_17h18.04.464,natb3,2021.2.3,MacIntel,62.5,611bcb5abee0cb706ff32d2b,6107d0959f7c4c3641818b95,611be115850b9f6062246fb6,0.36,
,,,,space,,0,91,91,227,1,T, , , , ,space,1500,1.5,,001,2021-08-17_17h18.04.464,natb3,2021.2.3,MacIntel,62.5,611bcb5abee0cb706ff32d2b,6107d0959f7c4c3641818b95,611be115850b9f6062246fb6,0.502,
,,,,space,,0,92,92,300,1,O, , , , ,space,2500,2.5,,001,2021-08-17_17h18.04.464,natb3,2021.2.3,MacIntel,62.5,611bcb5abee0cb706ff32d2b,6107d0959f7c4c3641818b95,611be115850b9f6062246fb6,0.333,
,,,,space,,0,93,93,222,1,O, , , , ,space,2000,2,,001,2021-08-17_17h18.04.464,natb3,2021.2.3,MacIntel,62.5,611bcb5abee0cb706ff32d2b,6107d0959f7c4c3641818b95,611be115850b9f6062246fb6,0.442,
,,,,space,,0,94,94,81,1,S, , , , ,space,2000,2,,001,2021-08-17_17h18.04.464,natb3,2021.2.3,MacIntel,62.5,611bcb5abee0cb706ff32d2b,6107d0959f7c4c3641818b95,611be115850b9f6062246fb6,0.434,
,,,,,,0,95,95,158,1,X, , , , ,,1500,1.5,,001,2021-08-17_17h18.04.464,natb3,2021.2.3,MacIntel,62.5,611bcb5abee0cb706ff32d2b,6107d0959f7c4c3641818b95,611be115850b9f6062246fb6,,
,,,,space,,0,96,96,192,1,A, , , , ,space,2000,2,,001,2021-08-17_17h18.04.464,natb3,2021.2.3,MacIntel,62.5,611bcb5abee0cb706ff32d2b,6107d0959f7c4c3641818b95,611be115850b9f6062246fb6,0.476,
,,,,space,,0,97,97,310,1,J, , , , ,space,2500,2.5,,001,2021-08-17_17h18.04.464,natb3,2021.2.3,MacIntel,62.5,611bcb5abee0cb706ff32d2b,6107d0959f7c4c3641818b95,611be115850b9f6062246fb6,0.504,
,,,,space,,0,98,98,17,1,F, , , , ,space,2500,2.5,,001,2021-08-17_17h18.04.464,natb3,2021.2.3,MacIntel,62.5,611bcb5abee0cb706ff32d2b,6107d0959f7c4c3641818b95,611be115850b9f6062246fb6,0.489,
,,,,space,,0,99,99,142,1,N, , , , ,space,2500,2.5,,001,2021-08-17_17h18.04.464,natb3,2021.2.3,MacIntel,62.5,611bcb5abee0cb706ff32d2b,6107d0959f7c4c3641818b95,611be115850b9f6062246fb6,0.476,
,,,,,,0,100,100,252,1,X,3, ,6,9,,2000,2,,001,2021-08-17_17h18.04.464,natb3,2021.2.3,MacIntel,62.5,611bcb5abee0cb706ff32d2b,6107d0959f7c4c3641818b95,611be115850b9f6062246fb6,,
,,,,space,,0,101,101,7,1,X, , , , ,,1500,1.5,,001,2021-08-17_17h18.04.464,natb3,2021.2.3,MacIntel,62.5,611bcb5abee0cb706ff32d2b,6107d0959f7c4c3641818b95,611be115850b9f6062246fb6,0.69,
,,,,space,,0,102,102,34,1,Q, , , , ,space,2500,2.5,,001,2021-08-17_17h18.04.464,natb3,2021.2.3,MacIntel,62.5,611bcb5abee0cb706ff32d2b,6107d0959f7c4c3641818b95,611be115850b9f6062246fb6,0.481,
,,,,space,,0,103,103,174,1,B, , , , ,space,2500,2.5,,001,2021-08-17_17h18.04.464,natb3,2021.2.3,MacIntel,62.5,611bcb5abee0cb706ff32d2b,6107d0959f7c4c3641818b95,611be115850b9f6062246fb6,0.55,
,,,,space,,0,104,104,117,1,T, , , , ,space,2500,2.5,,001,2021-08-17_17h18.04.464,natb3,2021.2.3,MacIntel,62.5,611bcb5abee0cb706ff32d2b,6107d0959f7c4c3641818b95,611be115850b9f6062246fb6,0.5,
,,,,space,,0,105,105,52,1,F, , , , ,space,1500,1.5,,001,2021-08-17_17h18.04.464,natb3,2021.2.3,MacIntel,62.5,611bcb5abee0cb706ff32d2b,6107d0959f7c4c3641818b95,611be115850b9f6062246fb6,0.453,
,,,,,,0,106,106,273,1,X, , , , ,,2000,2,,001,2021-08-17_17h18.04.464,natb3,2021.2.3,MacIntel,62.5,611bcb5abee0cb706ff32d2b,6107d0959f7c4c3641818b95,611be115850b9f6062246fb6,,
,,,,space,,0,107,107,108,1,Y, , , , ,space,2500,2.5,,001,2021-08-17_17h18.04.464,natb3,2021.2.3,MacIntel,62.5,611bcb5abee0cb706ff32d2b,6107d0959f7c4c3641818b95,611be115850b9f6062246fb6,0.696,
,,,,space,,0,108,108,1,1,W, , , , ,space,2000,2,,001,2021-08-17_17h18.04.464,natb3,2021.2.3,MacIntel,62.5,611bcb5abee0cb706ff32d2b,6107d0959f7c4c3641818b95,611be115850b9f6062246fb6,0.51,
,,,,space,,0,109,109,199,1,J, , , , ,space,2500,2.5,,001,2021-08-17_17h18.04.464,natb3,2021.2.3,MacIntel,62.5,611bcb5abee0cb706ff32d2b,6107d0959f7c4c3641818b95,611be115850b9f6062246fb6,0.565,
,,,,,,0,110,110,141,1,X,1, ,4,6,,1500,1.5,,001,2021-08-17_17h18.04.464,natb3,2021.2.3,MacIntel,62.5,611bcb5abee0cb706ff32d2b,6107d0959f7c4c3641818b95,611be115850b9f6062246fb6,,
,,,,space,,0,111,111,124,1,P, , , , ,space,2000,2,,001,2021-08-17_17h18.04.464,natb3,2021.2.3,MacIntel,62.5,611bcb5abee0cb706ff32d2b,6107d0959f7c4c3641818b95,611be115850b9f6062246fb6,0.446,
,,,,space,,0,112,112,130,1,F, , , , ,space,2000,2,,001,2021-08-17_17h18.04.464,natb3,2021.2.3,MacIntel,62.5,611bcb5abee0cb706ff32d2b,6107d0959f7c4c3641818b95,611be115850b9f6062246fb6,0.414,
,,,,,,0,113,113,263,1,X,4, ,6, ,,1500,1.5,,001,2021-08-17_17h18.04.464,natb3,2021.2.3,MacIntel,62.5,611bcb5abee0cb706ff32d2b,6107d0959f7c4c3641818b95,611be115850b9f6062246fb6,,
,,,,space,,0,114,114,304,1,S, , , , ,space,2000,2,,001,2021-08-17_17h18.04.464,natb3,2021.2.3,MacIntel,62.5,611bcb5abee0cb706ff32d2b,6107d0959f7c4c3641818b95,611be115850b9f6062246fb6,0.59,
,,,,space,,0,115,115,128,1,D, , , , ,space,2500,2.5,,001,2021-08-17_17h18.04.464,natb3,2021.2.3,MacIntel,62.5,611bcb5abee0cb706ff32d2b,6107d0959f7c4c3641818b95,611be115850b9f6062246fb6,0.434,
,,,,space,,0,116,116,247,1,Z, , , , ,space,1500,1.5,,001,2021-08-17_17h18.04.464,natb3,2021.2.3,MacIntel,62.5,611bcb5abee0cb706ff32d2b,6107d0959f7c4c3641818b95,611be115850b9f6062246fb6,0.605,
,,,,,,0,117,117,268,1,X,6, ,3, ,,2500,2.5,,001,2021-08-17_17h18.04.464,natb3,2021.2.3,MacIntel,62.5,611bcb5abee0cb706ff32d2b,6107d0959f7c4c3641818b95,611be115850b9f6062246fb6,,
,,,,,,0,118,118,96,1,X, , , , ,,1500,1.5,,001,2021-08-17_17h18.04.464,natb3,2021.2.3,MacIntel,62.5,611bcb5abee0cb706ff32d2b,6107d0959f7c4c3641818b95,611be115850b9f6062246fb6,,
,,,,space,,0,119,119,86,1,G, , , , ,space,2000,2,,001,2021-08-17_17h18.04.464,natb3,2021.2.3,MacIntel,62.5,611bcb5abee0cb706ff32d2b,6107d0959f7c4c3641818b95,611be115850b9f6062246fb6,0.46,
,,,,,,0,120,120,12,1,X, , , , ,,1500,1.5,,001,2021-08-17_17h18.04.464,natb3,2021.2.3,MacIntel,62.5,611bcb5abee0cb706ff32d2b,6107d0959f7c4c3641818b95,611be115850b9f6062246fb6,,
,,,,,,0,121,121,54,1,X, , , , ,,2000,2,,001,2021-08-17_17h18.04.464,natb3,2021.2.3,MacIntel,62.5,611bcb5abee0cb706ff32d2b,6107d0959f7c4c3641818b95,611be115850b9f6062246fb6,,
,,,,,,0,122,122,33,1,X, , , , ,,1500,1.5,,001,2021-08-17_17h18.04.464,natb3,2021.2.3,MacIntel,62.5,611bcb5abee0cb706ff32d2b,6107d0959f7c4c3641818b95,611be115850b9f6062246fb6,,
,,,,space,,0,123,123,257,1,W, , , , ,space,2000,2,,001,2021-08-17_17h18.04.464,natb3,2021.2.3,MacIntel,62.5,611bcb5abee0cb706ff32d2b,6107d0959f7c4c3641818b95,611be115850b9f6062246fb6,0.545,
,,,,space,,0,124,124,78,1,X, , , , ,,2000,2,,001,2021-08-17_17h18.04.464,natb3,2021.2.3,MacIntel,62.5,611bcb5abee0cb706ff32d2b,6107d0959f7c4c3641818b95,611be115850b9f6062246fb6,0.375,
,,,,,,0,125,125,18,1,X, ,2,5,8,,2500,2.5,,001,2021-08-17_17h18.04.464,natb3,2021.2.3,MacIntel,62.5,611bcb5abee0cb706ff32d2b,6107d0959f7c4c3641818b95,611be115850b9f6062246fb6,,
,,,,space,,0,126,126,61,1,C, , , , ,space,2000,2,,001,2021-08-17_17h18.04.464,natb3,2021.2.3,MacIntel,62.5,611bcb5abee0cb706ff32d2b,6107d0959f7c4c3641818b95,611be115850b9f6062246fb6,0.462,
,,,,space,,0,127,127,279,1,K, , , , ,space,2500,2.5,,001,2021-08-17_17h18.04.464,natb3,2021.2.3,MacIntel,62.5,611bcb5abee0cb706ff32d2b,6107d0959f7c4c3641818b95,611be115850b9f6062246fb6,0.354,
,,,,space,,0,128,128,154,1,I, , , , ,space,2500,2.5,,001,2021-08-17_17h18.04.464,natb3,2021.2.3,MacIntel,62.5,611bcb5abee0cb706ff32d2b,6107d0959f7c4c3641818b95,611be115850b9f6062246fb6,0.408,
,,,,space,,0,129,129,246,1,L, , , , ,space,2500,2.5,,001,2021-08-17_17h18.04.464,natb3,2021.2.3,MacIntel,62.5,611bcb5abee0cb706ff32d2b,6107d0959f7c4c3641818b95,611be115850b9f6062246fb6,0.491,
,,,,space,,0,130,130,6,1,Y, , , , ,space,2500,2.5,,001,2021-08-17_17h18.04.464,natb3,2021.2.3,MacIntel,62.5,611bcb5abee0cb706ff32d2b,6107d0959f7c4c3641818b95,611be115850b9f6062246fb6,0.382,
,,,,space,,0,131,131,213,1,X, , , , ,,2500,2.5,,001,2021-08-17_17h18.04.464,natb3,2021.2.3,MacIntel,62.5,611bcb5abee0cb706ff32d2b,6107d0959f7c4c3641818b95,611be115850b9f6062246fb6,0.385,
,,,,space,,0,132,132,71,1,R, , , , ,space,2500,2.5,,001,2021-08-17_17h18.04.464,natb3,2021.2.3,MacIntel,62.5,611bcb5abee0cb706ff32d2b,6107d0959f7c4c3641818b95,611be115850b9f6062246fb6,0.473,
,,,,space,,0,133,133,140,1,B, , , , ,space,2500,2.5,,001,2021-08-17_17h18.04.464,natb3,2021.2.3,MacIntel,62.5,611bcb5abee0cb706ff32d2b,6107d0959f7c4c3641818b95,611be115850b9f6062246fb6,0.425,
,,,,,,0,134,134,243,1,X, , , , ,,2500,2.5,,001,2021-08-17_17h18.04.464,natb3,2021.2.3,MacIntel,62.5,611bcb5abee0cb706ff32d2b,6107d0959f7c4c3641818b95,611be115850b9f6062246fb6,,
,,,,space,,0,135,135,19,1,G, , , , ,space,1500,1.5,,001,2021-08-17_17h18.04.464,natb3,2021.2.3,MacIntel,62.5,611bcb5abee0cb706ff32d2b,6107d0959f7c4c3641818b95,611be115850b9f6062246fb6,0.383,
,,,,space,,0,136,136,206,1,V, , , , ,space,2000,2,,001,2021-08-17_17h18.04.464,natb3,2021.2.3,MacIntel,62.5,611bcb5abee0cb706ff32d2b,6107d0959f7c4c3641818b95,611be115850b9f6062246fb6,0.458,
,,,,space,,0,137,137,21,1,J, , , , ,space,1500,1.5,,001,2021-08-17_17h18.04.464,natb3,2021.2.3,MacIntel,62.5,611bcb5abee0cb706ff32d2b,6107d0959f7c4c3641818b95,611be115850b9f6062246fb6,0.616,
,,,,space,,0,138,138,104,1,E, , , , ,space,2000,2,,001,2021-08-17_17h18.04.464,natb3,2021.2.3,MacIntel,62.5,611bcb5abee0cb706ff32d2b,6107d0959f7c4c3641818b95,611be115850b9f6062246fb6,0.413,
,,,,space,,0,139,139,333,1,I, , , , ,space,1500,1.5,,001,2021-08-17_17h18.04.464,natb3,2021.2.3,MacIntel,62.5,611bcb5abee0cb706ff32d2b,6107d0959f7c4c3641818b95,611be115850b9f6062246fb6,0.44,
,,,,space,,0,140,140,79,1,P, , , , ,space,2000,2,,001,2021-08-17_17h18.04.464,natb3,2021.2.3,MacIntel,62.5,611bcb5abee0cb706ff32d2b,6107d0959f7c4c3641818b95,611be115850b9f6062246fb6,0.513,
,,,,space,,0,141,141,38,1,R, , , , ,space,2500,2.5,,001,2021-08-17_17h18.04.464,natb3,2021.2.3,MacIntel,62.5,611bcb5abee0cb706ff32d2b,6107d0959f7c4c3641818b95,611be115850b9f6062246fb6,0.46,
,,,,space,,0,142,142,332,1,U, , , , ,space,2000,2,,001,2021-08-17_17h18.04.464,natb3,2021.2.3,MacIntel,62.5,611bcb5abee0cb706ff32d2b,6107d0959f7c4c3641818b95,611be115850b9f6062246fb6,0.377,
,,,,space,,0,143,143,72,1,T, , , , ,space,1500,1.5,,001,2021-08-17_17h18.04.464,natb3,2021.2.3,MacIntel,62.5,611bcb5abee0cb706ff32d2b,6107d0959f7c4c3641818b95,611be115850b9f6062246fb6,0.438,
,,,,,,0,144,144,211,1,X, , , , ,,2500,2.5,,001,2021-08-17_17h18.04.464,natb3,2021.2.3,MacIntel,62.5,611bcb5abee0cb706ff32d2b,6107d0959f7c4c3641818b95,611be115850b9f6062246fb6,,
,,,,,,0,145,145,82,1,X,4,6,1,7,,2000,2,,001,2021-08-17_17h18.04.464,natb3,2021.2.3,MacIntel,62.5,611bcb5abee0cb706ff32d2b,6107d0959f7c4c3641818b95,611be115850b9f6062246fb6,,
,,,,space,,0,146,146,157,1,A, , , , ,space,2500,2.5,,001,2021-08-17_17h18.04.464,natb3,2021.2.3,MacIntel,62.5,611bcb5abee0cb706ff32d2b,6107d0959f7c4c3641818b95,611be115850b9f6062246fb6,0.516,
,,,,,,0,147,147,168,1,X, , , , ,,2500,2.5,,001,2021-08-17_17h18.04.464,natb3,2021.2.3,MacIntel,62.5,611bcb5abee0cb706ff32d2b,6107d0959f7c4c3641818b95,611be115850b9f6062246fb6,,
,,,,space,,0,148,148,177,1,M, , , , ,space,2500,2.5,,001,2021-08-17_17h18.04.464,natb3,2021.2.3,MacIntel,62.5,611bcb5abee0cb706ff32d2b,6107d0959f7c4c3641818b95,611be115850b9f6062246fb6,0.452,
,,,,space,,0,149,149,16,1,D, , , , ,space,1500,1.5,,001,2021-08-17_17h18.04.464,natb3,2021.2.3,MacIntel,62.5,611bcb5abee0cb706ff32d2b,6107d0959f7c4c3641818b95,611be115850b9f6062246fb6,0.494,
,,,,space,,0,150,150,269,1,A, , , , ,space,2500,2.5,,001,2021-08-17_17h18.04.464,natb3,2021.2.3,MacIntel,62.5,611bcb5abee0cb706ff32d2b,6107d0959f7c4c3641818b95,611be115850b9f6062246fb6,0.437,
,,,,space,,0,151,151,187,1,X, ,3,7,4,,1500,1.5,,001,2021-08-17_17h18.04.464,natb3,2021.2.3,MacIntel,62.5,611bcb5abee0cb706ff32d2b,6107d0959f7c4c3641818b95,611be115850b9f6062246fb6,0.41,
,,,,space,,0,152,152,68,1,W, , , , ,space,2500,2.5,,001,2021-08-17_17h18.04.464,natb3,2021.2.3,MacIntel,62.5,611bcb5abee0cb706ff32d2b,6107d0959f7c4c3641818b95,611be115850b9f6062246fb6,0.483,
,,,,space,,0,153,153,284,1,V, , , , ,space,2500,2.5,,001,2021-08-17_17h18.04.464,natb3,2021.2.3,MacIntel,62.5,611bcb5abee0cb706ff32d2b,6107d0959f7c4c3641818b95,611be115850b9f6062246fb6,0.565,
,,,,space,,0,154,154,46,1,X, , , , ,,2000,2,,001,2021-08-17_17h18.04.464,natb3,2021.2.3,MacIntel,62.5,611bcb5abee0cb706ff32d2b,6107d0959f7c4c3641818b95,611be115850b9f6062246fb6,0.348,
,,,,,,0,155,155,277,1,X,8,5, ,2,,2000,2,,001,2021-08-17_17h18.04.464,natb3,2021.2.3,MacIntel,62.5,611bcb5abee0cb706ff32d2b,6107d0959f7c4c3641818b95,611be115850b9f6062246fb6,,
,,,,space,,0,156,156,20,1,H, , , , ,space,1500,1.5,,001,2021-08-17_17h18.04.464,natb3,2021.2.3,MacIntel,62.5,611bcb5abee0cb706ff32d2b,6107d0959f7c4c3641818b95,611be115850b9f6062246fb6,0.963,
,,,,,,0,157,157,25,1,Z, , , , ,space,2500,2.5,,001,2021-08-17_17h18.04.464,natb3,2021.2.3,MacIntel,62.5,611bcb5abee0cb706ff32d2b,6107d0959f7c4c3641818b95,611be115850b9f6062246fb6,,
,,,,space,,0,158,158,109,1,U, , , , ,space,1500,1.5,,001,2021-08-17_17h18.04.464,natb3,2021.2.3,MacIntel,62.5,611bcb5abee0cb706ff32d2b,6107d0959f7c4c3641818b95,611be115850b9f6062246fb6,0.648,
,,,,,,0,159,159,290,1,W, , , , ,space,1500,1.5,,001,2021-08-17_17h18.04.464,natb3,2021.2.3,MacIntel,62.5,611bcb5abee0cb706ff32d2b,6107d0959f7c4c3641818b95,611be115850b9f6062246fb6,,
,,,,,,0,160,160,93,1,X,5, ,7, ,,2500,2.5,,001,2021-08-17_17h18.04.464,natb3,2021.2.3,MacIntel,62.5,611bcb5abee0cb706ff32d2b,6107d0959f7c4c3641818b95,611be115850b9f6062246fb6,,
,,,,space,,0,161,161,95,1,V, , , , ,space,1500,1.5,,001,2021-08-17_17h18.04.464,natb3,2021.2.3,MacIntel,62.5,611bcb5abee0cb706ff32d2b,6107d0959f7c4c3641818b95,611be115850b9f6062246fb6,0.565,
,,,,space,,0,162,162,100,1,M, , , , ,space,2000,2,,001,2021-08-17_17h18.04.464,natb3,2021.2.3,MacIntel,62.5,611bcb5abee0cb706ff32d2b,6107d0959f7c4c3641818b95,611be115850b9f6062246fb6,0.479,
,,,,space,,0,163,163,306,1,D, , , , ,space,2000,2,,001,2021-08-17_17h18.04.464,natb3,2021.2.3,MacIntel,62.5,611bcb5abee0cb706ff32d2b,6107d0959f7c4c3641818b95,611be115850b9f6062246fb6,0.364,
,,,,space,,0,164,164,180,1,W, , , , ,space,2000,2,,001,2021-08-17_17h18.04.464,natb3,2021.2.3,MacIntel,62.5,611bcb5abee0cb706ff32d2b,6107d0959f7c4c3641818b95,611be115850b9f6062246fb6,0.41,
,,,,space,,0,165,165,5,1,T, , , , ,space,2000,2,,001,2021-08-17_17h18.04.464,natb3,2021.2.3,MacIntel,62.5,611bcb5abee0cb706ff32d2b,6107d0959f7c4c3641818b95,611be115850b9f6062246fb6,0.42,
,,,,space,,0,166,166,214,1,W, , , , ,space,2000,2,,001,2021-08-17_17h18.04.464,natb3,2021.2.3,MacIntel,62.5,611bcb5abee0cb706ff32d2b,6107d0959f7c4c3641818b95,611be115850b9f6062246fb6,0.324,
,,,,space,space,0,167,167,226,1,R, , , , ,space,2000,2,,001,2021-08-17_17h18.04.464,natb3,2021.2.3,MacIntel,62.5,611bcb5abee0cb706ff32d2b,6107d0959f7c4c3641818b95,611be115850b9f6062246fb6,0.519,9.778
,,,,space,,0,168,168,324,1,Q, , , , ,space,2000,2,,001,2021-08-17_17h18.04.464,natb3,2021.2.3,MacIntel,62.5,611bcb5abee0cb706ff32d2b,6107d0959f7c4c3641818b95,611be115850b9f6062246fb6,0.83,
,,,,space,,0,169,169,190,1,P, , , , ,space,2000,2,,001,2021-08-17_17h18.04.464,natb3,2021.2.3,MacIntel,62.5,611bcb5abee0cb706ff32d2b,6107d0959f7c4c3641818b95,611be115850b9f6062246fb6,0.41,
,,,,space,,0,170,170,48,1,A, , , , ,space,2500,2.5,,001,2021-08-17_17h18.04.464,natb3,2021.2.3,MacIntel,62.5,611bcb5abee0cb706ff32d2b,6107d0959f7c4c3641818b95,611be115850b9f6062246fb6,0.351,
,,,,space,,0,171,171,3,1,R, , , , ,space,2000,2,,001,2021-08-17_17h18.04.464,natb3,2021.2.3,MacIntel,62.5,611bcb5abee0cb706ff32d2b,6107d0959f7c4c3641818b95,611be115850b9f6062246fb6,0.488,
,,,,space,,0,172,172,42,1,U, , , , ,space,1500,1.5,,001,2021-08-17_17h18.04.464,natb3,2021.2.3,MacIntel,62.5,611bcb5abee0cb706ff32d2b,6107d0959f7c4c3641818b95,611be115850b9f6062246fb6,0.504,
,,,,space,,0,173,173,14,1,S, , , , ,space,2500,2.5,,001,2021-08-17_17h18.04.464,natb3,2021.2.3,MacIntel,62.5,611bcb5abee0cb706ff32d2b,6107d0959f7c4c3641818b95,611be115850b9f6062246fb6,0.483,
,,,,space,,0,174,174,134,1,J, , , , ,space,2000,2,,001,2021-08-17_17h18.04.464,natb3,2021.2.3,MacIntel,62.5,611bcb5abee0cb706ff32d2b,6107d0959f7c4c3641818b95,611be115850b9f6062246fb6,0.355,
,,,,space,,0,175,175,237,1,S, , , , ,space,1500,1.5,,001,2021-08-17_17h18.04.464,natb3,2021.2.3,MacIntel,62.5,611bcb5abee0cb706ff32d2b,6107d0959f7c4c3641818b95,611be115850b9f6062246fb6,0.845,
,,,,,,0,176,176,45,1,O, , , , ,space,2000,2,,001,2021-08-17_17h18.04.464,natb3,2021.2.3,MacIntel,62.5,611bcb5abee0cb706ff32d2b,6107d0959f7c4c3641818b95,611be115850b9f6062246fb6,,
,,,,space,,0,177,177,230,1,U, , , , ,space,1500,1.5,,001,2021-08-17_17h18.04.464,natb3,2021.2.3,MacIntel,62.5,611bcb5abee0cb706ff32d2b,6107d0959f7c4c3641818b95,611be115850b9f6062246fb6,0.536,
,,,,space,,0,178,178,317,1,C, , , , ,space,2000,2,,001,2021-08-17_17h18.04.464,natb3,2021.2.3,MacIntel,62.5,611bcb5abee0cb706ff32d2b,6107d0959f7c4c3641818b95,611be115850b9f6062246fb6,0.574,
,,,,space,,0,179,179,242,1,H, , , , ,space,2500,2.5,,001,2021-08-17_17h18.04.464,natb3,2021.2.3,MacIntel,62.5,611bcb5abee0cb706ff32d2b,6107d0959f7c4c3641818b95,611be115850b9f6062246fb6,0.585,
,,,,space,,0,180,180,228,1,Y, , , , ,space,2000,2,,001,2021-08-17_17h18.04.464,natb3,2021.2.3,MacIntel,62.5,611bcb5abee0cb706ff32d2b,6107d0959f7c4c3641818b95,611be115850b9f6062246fb6,0.64,
,,,,,,0,181,181,69,1,X, , , , ,,1500,1.5,,001,2021-08-17_17h18.04.464,natb3,2021.2.3,MacIntel,62.5,611bcb5abee0cb706ff32d2b,6107d0959f7c4c3641818b95,611be115850b9f6062246fb6,,
,,,,space,,0,182,182,225,1,E, , , , ,space,2000,2,,001,2021-08-17_17h18.04.464,natb3,2021.2.3,MacIntel,62.5,611bcb5abee0cb706ff32d2b,6107d0959f7c4c3641818b95,611be115850b9f6062246fb6,0.653,
,,,,space,,0,183,183,159,1,S, , , , ,space,2500,2.5,,001,2021-08-17_17h18.04.464,natb3,2021.2.3,MacIntel,62.5,611bcb5abee0cb706ff32d2b,6107d0959f7c4c3641818b95,611be115850b9f6062246fb6,0.562,
,,,,space,,0,184,184,62,1,V, , , , ,space,1500,1.5,,001,2021-08-17_17h18.04.464,natb3,2021.2.3,MacIntel,62.5,611bcb5abee0cb706ff32d2b,6107d0959f7c4c3641818b95,611be115850b9f6062246fb6,0.674,
,,,,space,,0,185,185,183,1,R, , , , ,space,1500,1.5,,001,2021-08-17_17h18.04.464,natb3,2021.2.3,MacIntel,62.5,611bcb5abee0cb706ff32d2b,6107d0959f7c4c3641818b95,611be115850b9f6062246fb6,0.426,
,,,,space,,0,186,186,301,1,P, , , , ,space,1500,1.5,,001,2021-08-17_17h18.04.464,natb3,2021.2.3,MacIntel,62.5,611bcb5abee0cb706ff32d2b,6107d0959f7c4c3641818b95,611be115850b9f6062246fb6,0.39,
,,,,,,0,187,187,147,1,E, , , , ,space,2000,2,,001,2021-08-17_17h18.04.464,natb3,2021.2.3,MacIntel,62.5,611bcb5abee0cb706ff32d2b,6107d0959f7c4c3641818b95,611be115850b9f6062246fb6,,
,,,,,,0,188,188,295,1,X,8,7,5, ,,2500,2.5,,001,2021-08-17_17h18.04.464,natb3,2021.2.3,MacIntel,62.5,611bcb5abee0cb706ff32d2b,6107d0959f7c4c3641818b95,611be115850b9f6062246fb6,,
,,,,space,,0,189,189,198,1,H, , , , ,space,2500,2.5,,001,2021-08-17_17h18.04.464,natb3,2021.2.3,MacIntel,62.5,611bcb5abee0cb706ff32d2b,6107d0959f7c4c3641818b95,611be115850b9f6062246fb6,0.331,
,,,,,,0,190,190,249,1,C, , , , ,space,2000,2,,001,2021-08-17_17h18.04.464,natb3,2021.2.3,MacIntel,62.5,611bcb5abee0cb706ff32d2b,6107d0959f7c4c3641818b95,611be115850b9f6062246fb6,,
,,,,space,,0,191,191,311,1,X,1,2,7,3,,2500,2.5,,001,2021-08-17_17h18.04.464,natb3,2021.2.3,MacIntel,62.5,611bcb5abee0cb706ff32d2b,6107d0959f7c4c3641818b95,611be115850b9f6062246fb6,0.334,
,,,,space,,0,192,192,319,1,V, , , , ,space,2000,2,,001,2021-08-17_17h18.04.464,natb3,2021.2.3,MacIntel,62.5,611bcb5abee0cb706ff32d2b,6107d0959f7c4c3641818b95,611be115850b9f6062246fb6,0.371,
,,,,space,,0,193,193,120,1,U, , , , ,space,1500,1.5,,001,2021-08-17_17h18.04.464,natb3,2021.2.3,MacIntel,62.5,611bcb5abee0cb706ff32d2b,6107d0959f7c4c3641818b95,611be115850b9f6062246fb6,0.314,
,,,,space,,0,194,194,276,1,H, , , , ,space,2000,2,,001,2021-08-17_17h18.04.464,natb3,2021.2.3,MacIntel,62.5,611bcb5abee0cb706ff32d2b,6107d0959f7c4c3641818b95,611be115850b9f6062246fb6,0.282,
,,,,space,,0,195,195,328,1,R, , , , ,space,1500,1.5,,001,2021-08-17_17h18.04.464,natb3,2021.2.3,MacIntel,62.5,611bcb5abee0cb706ff32d2b,6107d0959f7c4c3641818b95,611be115850b9f6062246fb6,0.345,
,,,,,,0,196,196,171,1,X, , , , ,,1500,1.5,,001,2021-08-17_17h18.04.464,natb3,2021.2.3,MacIntel,62.5,611bcb5abee0cb706ff32d2b,6107d0959f7c4c3641818b95,611be115850b9f6062246fb6,,
,,,,space,,0,197,197,28,1,V, , , , ,space,1500,1.5,,001,2021-08-17_17h18.04.464,natb3,2021.2.3,MacIntel,62.5,611bcb5abee0cb706ff32d2b,6107d0959f7c4c3641818b95,611be115850b9f6062246fb6,0.451,
,,,,space,,0,198,198,298,1,I, , , , ,space,2000,2,,001,2021-08-17_17h18.04.464,natb3,2021.2.3,MacIntel,62.5,611bcb5abee0cb706ff32d2b,6107d0959f7c4c3641818b95,611be115850b9f6062246fb6,0.45,
,,,,space,,0,199,199,205,1,C, , , , ,space,2000,2,,001,2021-08-17_17h18.04.464,natb3,2021.2.3,MacIntel,62.5,611bcb5abee0cb706ff32d2b,6107d0959f7c4c3641818b95,611be115850b9f6062246fb6,0.93,
,,,,space,,0,200,200,143,1,M, , , , ,space,2500,2.5,,001,2021-08-17_17h18.04.464,natb3,2021.2.3,MacIntel,62.5,611bcb5abee0cb706ff32d2b,6107d0959f7c4c3641818b95,611be115850b9f6062246fb6,0.441,
,,,,space,,0,201,201,262,1,Y, , , , ,space,2500,2.5,,001,2021-08-17_17h18.04.464,natb3,2021.2.3,MacIntel,62.5,611bcb5abee0cb706ff32d2b,6107d0959f7c4c3641818b95,611be115850b9f6062246fb6,0.409,
,,,,space,,0,202,202,238,1,D, , , , ,space,1500,1.5,,001,2021-08-17_17h18.04.464,natb3,2021.2.3,MacIntel,62.5,611bcb5abee0cb706ff32d2b,6107d0959f7c4c3641818b95,611be115850b9f6062246fb6,0.546,
,,,,space,,0,203,203,305,1,X, , , , ,,1500,1.5,,001,2021-08-17_17h18.04.464,natb3,2021.2.3,MacIntel,62.5,611bcb5abee0cb706ff32d2b,6107d0959f7c4c3641818b95,611be115850b9f6062246fb6,0.356,
,,,,space,,0,204,204,24,1,L, , , , ,space,2500,2.5,,001,2021-08-17_17h18.04.464,natb3,2021.2.3,MacIntel,62.5,611bcb5abee0cb706ff32d2b,6107d0959f7c4c3641818b95,611be115850b9f6062246fb6,0.426,
,,,,space,,0,205,205,173,1,V, , , , ,space,1500,1.5,,001,2021-08-17_17h18.04.464,natb3,2021.2.3,MacIntel,62.5,611bcb5abee0cb706ff32d2b,6107d0959f7c4c3641818b95,611be115850b9f6062246fb6,0.407,
,,,,,,0,206,206,191,1,X,1, ,3,4,,2500,2.5,,001,2021-08-17_17h18.04.464,natb3,2021.2.3,MacIntel,62.5,611bcb5abee0cb706ff32d2b,6107d0959f7c4c3641818b95,611be115850b9f6062246fb6,,
,,,,space,,0,207,207,105,1,R, , , , ,space,2500,2.5,,001,2021-08-17_17h18.04.464,natb3,2021.2.3,MacIntel,62.5,611bcb5abee0cb706ff32d2b,6107d0959f7c4c3641818b95,611be115850b9f6062246fb6,0.445,
,,,,space,,0,208,208,327,1,E, , , , ,space,1500,1.5,,001,2021-08-17_17h18.04.464,natb3,2021.2.3,MacIntel,62.5,611bcb5abee0cb706ff32d2b,6107d0959f7c4c3641818b95,611be115850b9f6062246fb6,0.391,
,,,,space,,0,209,209,63,1,B, , , , ,space,2000,2,,001,2021-08-17_17h18.04.464,natb3,2021.2.3,MacIntel,62.5,611bcb5abee0cb706ff32d2b,6107d0959f7c4c3641818b95,611be115850b9f6062246fb6,0.499,
,,,,,,0,210,210,138,1,X,8,5, ,3,,2000,2,,001,2021-08-17_17h18.04.464,natb3,2021.2.3,MacIntel,62.5,611bcb5abee0cb706ff32d2b,6107d0959f7c4c3641818b95,611be115850b9f6062246fb6,,
,,,,space,,0,211,211,56,1,J, , , , ,space,1500,1.5,,001,2021-08-17_17h18.04.464,natb3,2021.2.3,MacIntel,62.5,611bcb5abee0cb706ff32d2b,6107d0959f7c4c3641818b95,611be115850b9f6062246fb6,0.353,
,,,,space,,0,212,212,188,1,I, , , , ,space,2500,2.5,,001,2021-08-17_17h18.04.464,natb3,2021.2.3,MacIntel,62.5,611bcb5abee0cb706ff32d2b,6107d0959f7c4c3641818b95,611be115850b9f6062246fb6,0.424,
,,,,space,,0,213,213,119,1,Y, , , , ,space,2500,2.5,,001,2021-08-17_17h18.04.464,natb3,2021.2.3,MacIntel,62.5,611bcb5abee0cb706ff32d2b,6107d0959f7c4c3641818b95,611be115850b9f6062246fb6,0.276,
,,,,space,,0,214,214,41,1,Y, , , , ,space,2500,2.5,,001,2021-08-17_17h18.04.464,natb3,2021.2.3,MacIntel,62.5,611bcb5abee0cb706ff32d2b,6107d0959f7c4c3641818b95,611be115850b9f6062246fb6,0.246,
,,,,space,,0,215,215,296,1,Y, , , , ,space,2500,2.5,,001,2021-08-17_17h18.04.464,natb3,2021.2.3,MacIntel,62.5,611bcb5abee0cb706ff32d2b,6107d0959f7c4c3641818b95,611be115850b9f6062246fb6,0.309,
,,,,space,,0,216,216,49,1,S, , , , ,space,1500,1.5,,001,2021-08-17_17h18.04.464,natb3,2021.2.3,MacIntel,62.5,611bcb5abee0cb706ff32d2b,6107d0959f7c4c3641818b95,611be115850b9f6062246fb6,0.409,
,,,,space,,0,217,217,325,1,X, , , , ,,2500,2.5,,001,2021-08-17_17h18.04.464,natb3,2021.2.3,MacIntel,62.5,611bcb5abee0cb706ff32d2b,6107d0959f7c4c3641818b95,611be115850b9f6062246fb6,0.377,
,,,,,,0,218,218,271,1,X, , , , ,,2500,2.5,,001,2021-08-17_17h18.04.464,natb3,2021.2.3,MacIntel,62.5,611bcb5abee0cb706ff32d2b,6107d0959f7c4c3641818b95,611be115850b9f6062246fb6,,
,,,,space,,0,219,219,209,1,N, , , , ,space,2000,2,,001,2021-08-17_17h18.04.464,natb3,2021.2.3,MacIntel,62.5,611bcb5abee0cb706ff32d2b,6107d0959f7c4c3641818b95,611be115850b9f6062246fb6,0.526,
,,,,,,0,220,220,322,1,X, , ,1,6,,2000,2,,001,2021-08-17_17h18.04.464,natb3,2021.2.3,MacIntel,62.5,611bcb5abee0cb706ff32d2b,6107d0959f7c4c3641818b95,611be115850b9f6062246fb6,,
,,,,space,,0,221,221,137,1,C, , , , ,space,2500,2.5,,001,2021-08-17_17h18.04.464,natb3,2021.2.3,MacIntel,62.5,611bcb5abee0cb706ff32d2b,6107d0959f7c4c3641818b95,611be115850b9f6062246fb6,0.738,
,,,,space,,0,222,222,87,1,H, , , , ,space,1500,1.5,,001,2021-08-17_17h18.04.464,natb3,2021.2.3,MacIntel,62.5,611bcb5abee0cb706ff32d2b,6107d0959f7c4c3641818b95,611be115850b9f6062246fb6,0.833,
,,,,space,,0,223,223,150,1,T, , , , ,space,2500,2.5,,001,2021-08-17_17h18.04.464,natb3,2021.2.3,MacIntel,62.5,611bcb5abee0cb706ff32d2b,6107d0959f7c4c3641818b95,611be115850b9f6062246fb6,0.418,
,,,,space,,0,224,224,196,1,F, , , , ,space,1500,1.5,,001,2021-08-17_17h18.04.464,natb3,2021.2.3,MacIntel,62.5,611bcb5abee0cb706ff32d2b,6107d0959f7c4c3641818b95,611be115850b9f6062246fb6,0.335,
,,,,space,,0,225,225,66,1,X, ,4,7, ,,2000,2,,001,2021-08-17_17h18.04.464,natb3,2021.2.3,MacIntel,62.5,611bcb5abee0cb706ff32d2b,6107d0959f7c4c3641818b95,611be115850b9f6062246fb6,0.372,
,,,,space,,0,226,226,149,1,R, , , , ,space,2000,2,,001,2021-08-17_17h18.04.464,natb3,2021.2.3,MacIntel,62.5,611bcb5abee0cb706ff32d2b,6107d0959f7c4c3641818b95,611be115850b9f6062246fb6,0.348,
,,,,space,,0,227,227,151,1,Y, , , , ,space,2500,2.5,,001,2021-08-17_17h18.04.464,natb3,2021.2.3,MacIntel,62.5,611bcb5abee0cb706ff32d2b,6107d0959f7c4c3641818b95,611be115850b9f6062246fb6,0.402,
,,,,space,,0,228,228,106,1,T, , , , ,space,1500,1.5,,001,2021-08-17_17h18.04.464,natb3,2021.2.3,MacIntel,62.5,611bcb5abee0cb706ff32d2b,6107d0959f7c4c3641818b95,611be115850b9f6062246fb6,0.388,
,,,,,,0,229,229,218,1,X,1,3, ,8,,1500,1.5,,001,2021-08-17_17h18.04.464,natb3,2021.2.3,MacIntel,62.5,611bcb5abee0cb706ff32d2b,6107d0959f7c4c3641818b95,611be115850b9f6062246fb6,,
,,,,,,0,230,230,116,1,X, , , , ,,2000,2,,001,2021-08-17_17h18.04.464,natb3,2021.2.3,MacIntel,62.5,611bcb5abee0cb706ff32d2b,6107d0959f7c4c3641818b95,611be115850b9f6062246fb6,,
,,,,space,,0,231,231,193,1,S, , , , ,space,2500,2.5,,001,2021-08-17_17h18.04.464,natb3,2021.2.3,MacIntel,62.5,611bcb5abee0cb706ff32d2b,6107d0959f7c4c3641818b95,611be115850b9f6062246fb6,0.375,
,,,,,,0,232,232,162,1,X,1,6, ,2,,1500,1.5,,001,2021-08-17_17h18.04.464,natb3,2021.2.3,MacIntel,62.5,611bcb5abee0cb706ff32d2b,6107d0959f7c4c3641818b95,611be115850b9f6062246fb6,,
,,,,space,,0,233,233,297,1,U, , , , ,space,2000,2,,001,2021-08-17_17h18.04.464,natb3,2021.2.3,MacIntel,62.5,611bcb5abee0cb706ff32d2b,6107d0959f7c4c3641818b95,611be115850b9f6062246fb6,0.376,
,,,,space,,0,234,234,232,1,O, , , , ,space,2500,2.5,,001,2021-08-17_17h18.04.464,natb3,2021.2.3,MacIntel,62.5,611bcb5abee0cb706ff32d2b,6107d0959f7c4c3641818b95,611be115850b9f6062246fb6,0.259,
,,,,space,,0,235,235,70,1,E, , , , ,space,2500,2.5,,001,2021-08-17_17h18.04.464,natb3,2021.2.3,MacIntel,62.5,611bcb5abee0cb706ff32d2b,6107d0959f7c4c3641818b95,611be115850b9f6062246fb6,0.375,
,,,,space,,0,236,236,32,1,M, , , , ,space,1500,1.5,,001,2021-08-17_17h18.04.464,natb3,2021.2.3,MacIntel,62.5,611bcb5abee0cb706ff32d2b,6107d0959f7c4c3641818b95,611be115850b9f6062246fb6,0.358,
,,,,space,,0,237,237,110,1,I, , , , ,space,1500,1.5,,001,2021-08-17_17h18.04.464,natb3,2021.2.3,MacIntel,62.5,611bcb5abee0cb706ff32d2b,6107d0959f7c4c3641818b95,611be115850b9f6062246fb6,0.303,
,,,,space,,0,238,238,289,1,Q, , , , ,space,2000,2,,001,2021-08-17_17h18.04.464,natb3,2021.2.3,MacIntel,62.5,611bcb5abee0cb706ff32d2b,6107d0959f7c4c3641818b95,611be115850b9f6062246fb6,0.255,
,,,,,,0,239,239,259,1,X,8, , ,3,,2500,2.5,,001,2021-08-17_17h18.04.464,natb3,2021.2.3,MacIntel,62.5,611bcb5abee0cb706ff32d2b,6107d0959f7c4c3641818b95,611be115850b9f6062246fb6,,
,,,,space,,0,240,240,323,1,M, , , , ,space,2500,2.5,,001,2021-08-17_17h18.04.464,natb3,2021.2.3,MacIntel,62.5,611bcb5abee0cb706ff32d2b,6107d0959f7c4c3641818b95,611be115850b9f6062246fb6,0.293,
,,,,space,,0,241,241,23,1,X,1, ,5, ,,2000,2,,001,2021-08-17_17h18.04.464,natb3,2021.2.3,MacIntel,62.5,611bcb5abee0cb706ff32d2b,6107d0959f7c4c3641818b95,611be115850b9f6062246fb6,0.359,
,,,,space,,0,242,242,77,1,O, , , , ,space,2000,2,,001,2021-08-17_17h18.04.464,natb3,2021.2.3,MacIntel,62.5,611bcb5abee0cb706ff32d2b,6107d0959f7c4c3641818b95,611be115850b9f6062246fb6,0.378,
,,,,space,,0,243,243,291,1,X, , , , ,,2000,2,,001,2021-08-17_17h18.04.464,natb3,2021.2.3,MacIntel,62.5,611bcb5abee0cb706ff32d2b,6107d0959f7c4c3641818b95,611be115850b9f6062246fb6,0.302,
,,,,space,,0,244,244,265,1,I, , , , ,space,2000,2,,001,2021-08-17_17h18.04.464,natb3,2021.2.3,MacIntel,62.5,611bcb5abee0cb706ff32d2b,6107d0959f7c4c3641818b95,611be115850b9f6062246fb6,0.436,
,,,,,,0,245,245,248,1,X, ,1,5, ,,1500,1.5,,001,2021-08-17_17h18.04.464,natb3,2021.2.3,MacIntel,62.5,611bcb5abee0cb706ff32d2b,6107d0959f7c4c3641818b95,611be115850b9f6062246fb6,,
,,,,space,,0,246,246,292,1,E, , , , ,space,2000,2,,001,2021-08-17_17h18.04.464,natb3,2021.2.3,MacIntel,62.5,611bcb5abee0cb706ff32d2b,6107d0959f7c4c3641818b95,611be115850b9f6062246fb6,0.445,
,,,,space,,0,247,247,146,1,W, , , , ,space,1500,1.5,,001,2021-08-17_17h18.04.464,natb3,2021.2.3,MacIntel,62.5,611bcb5abee0cb706ff32d2b,6107d0959f7c4c3641818b95,611be115850b9f6062246fb6,0.393,
,,,,space,,0,248,248,80,1,A, , , , ,space,2000,2,,001,2021-08-17_17h18.04.464,natb3,2021.2.3,MacIntel,62.5,611bcb5abee0cb706ff32d2b,6107d0959f7c4c3641818b95,611be115850b9f6062246fb6,0.371,
,,,,space,,0,249,249,240,1,F, , , , ,space,2500,2.5,,001,2021-08-17_17h18.04.464,natb3,2021.2.3,MacIntel,62.5,611bcb5abee0cb706ff32d2b,6107d0959f7c4c3641818b95,611be115850b9f6062246fb6,0.379,
,,,,,,0,250,250,107,1,X,9,3, ,2,,2000,2,,001,2021-08-17_17h18.04.464,natb3,2021.2.3,MacIntel,62.5,611bcb5abee0cb706ff32d2b,6107d0959f7c4c3641818b95,611be115850b9f6062246fb6,,
,,,,,,0,251,251,43,1,X, ,6, ,2,,2500,2.5,,001,2021-08-17_17h18.04.464,natb3,2021.2.3,MacIntel,62.5,611bcb5abee0cb706ff32d2b,6107d0959f7c4c3641818b95,611be115850b9f6062246fb6,,
,,,,space,,0,252,252,184,1,T, , , , ,space,2000,2,,001,2021-08-17_17h18.04.464,natb3,2021.2.3,MacIntel,62.5,611bcb5abee0cb706ff32d2b,6107d0959f7c4c3641818b95,611be115850b9f6062246fb6,0.74,
,,,,space,,0,253,253,264,1,U, , , , ,space,2000,2,,001,2021-08-17_17h18.04.464,natb3,2021.2.3,MacIntel,62.5,611bcb5abee0cb706ff32d2b,6107d0959f7c4c3641818b95,611be115850b9f6062246fb6,0.49,
,,,,space,,0,254,254,255,1,X, , , , ,,1500,1.5,,001,2021-08-17_17h18.04.464,natb3,2021.2.3,MacIntel,62.5,611bcb5abee0cb706ff32d2b,6107d0959f7c4c3641818b95,611be115850b9f6062246fb6,0.43,
,,,,space,,0,255,255,270,1,S, , , , ,space,1500,1.5,,001,2021-08-17_17h18.04.464,natb3,2021.2.3,MacIntel,62.5,611bcb5abee0cb706ff32d2b,6107d0959f7c4c3641818b95,611be115850b9f6062246fb6,0.328,
,,,,space,,0,256,256,83,1,D, , , , ,space,2000,2,,001,2021-08-17_17h18.04.464,natb3,2021.2.3,MacIntel,62.5,611bcb5abee0cb706ff32d2b,6107d0959f7c4c3641818b95,611be115850b9f6062246fb6,0.352,
,,,,space,,0,257,257,75,1,U, , , , ,space,1500,1.5,,001,2021-08-17_17h18.04.464,natb3,2021.2.3,MacIntel,62.5,611bcb5abee0cb706ff32d2b,6107d0959f7c4c3641818b95,611be115850b9f6062246fb6,0.349,
,,,,space,,0,258,258,65,1,M, , , , ,space,1500,1.5,,001,2021-08-17_17h18.04.464,natb3,2021.2.3,MacIntel,62.5,611bcb5abee0cb706ff32d2b,6107d0959f7c4c3641818b95,611be115850b9f6062246fb6,0.4,
,,,,space,,0,259,259,219,1,Y, , , , ,space,2000,2,,001,2021-08-17_17h18.04.464,natb3,2021.2.3,MacIntel,62.5,611bcb5abee0cb706ff32d2b,6107d0959f7c4c3641818b95,611be115850b9f6062246fb6,0.359,
,,,,space,,0,260,260,88,1,J, , , , ,space,2500,2.5,,001,2021-08-17_17h18.04.464,natb3,2021.2.3,MacIntel,62.5,611bcb5abee0cb706ff32d2b,6107d0959f7c4c3641818b95,611be115850b9f6062246fb6,0.367,
,,,,,,0,261,261,148,1,X, , , , ,,2000,2,,001,2021-08-17_17h18.04.464,natb3,2021.2.3,MacIntel,62.5,611bcb5abee0cb706ff32d2b,6107d0959f7c4c3641818b95,611be115850b9f6062246fb6,,
,,,,space,,0,262,262,4,1,X, , , , ,,2000,2,,001,2021-08-17_17h18.04.464,natb3,2021.2.3,MacIntel,62.5,611bcb5abee0cb706ff32d2b,6107d0959f7c4c3641818b95,611be115850b9f6062246fb6,0.266,
,,,,space,,0,263,263,64,1,N, , , , ,space,2000,2,,001,2021-08-17_17h18.04.464,natb3,2021.2.3,MacIntel,62.5,611bcb5abee0cb706ff32d2b,6107d0959f7c4c3641818b95,611be115850b9f6062246fb6,0.588,
,,,,space,,0,264,264,334,1,O, , , , ,space,1500,1.5,,001,2021-08-17_17h18.04.464,natb3,2021.2.3,MacIntel,62.5,611bcb5abee0cb706ff32d2b,6107d0959f7c4c3641818b95,611be115850b9f6062246fb6,0.388,
,,,,space,,0,265,265,321,1,N, , , , ,space,2000,2,,001,2021-08-17_17h18.04.464,natb3,2021.2.3,MacIntel,62.5,611bcb5abee0cb706ff32d2b,6107d0959f7c4c3641818b95,611be115850b9f6062246fb6,0.348,
,,,,space,,0,266,266,176,1,N, , , , ,space,1500,1.5,,001,2021-08-17_17h18.04.464,natb3,2021.2.3,MacIntel,62.5,611bcb5abee0cb706ff32d2b,6107d0959f7c4c3641818b95,611be115850b9f6062246fb6,0.401,
,,,,space,,0,267,267,167,1,K, , , , ,space,1500,1.5,,001,2021-08-17_17h18.04.464,natb3,2021.2.3,MacIntel,62.5,611bcb5abee0cb706ff32d2b,6107d0959f7c4c3641818b95,611be115850b9f6062246fb6,0.457,
,,,,,,0,268,268,318,1,X, , , , ,,1500,1.5,,001,2021-08-17_17h18.04.464,natb3,2021.2.3,MacIntel,62.5,611bcb5abee0cb706ff32d2b,6107d0959f7c4c3641818b95,611be115850b9f6062246fb6,,
,,,,space,,0,269,269,245,1,K, , , , ,space,2000,2,,001,2021-08-17_17h18.04.464,natb3,2021.2.3,MacIntel,62.5,611bcb5abee0cb706ff32d2b,6107d0959f7c4c3641818b95,611be115850b9f6062246fb6,0.447,
,,,,space,,0,270,270,156,1,P, , , , ,space,1500,1.5,,001,2021-08-17_17h18.04.464,natb3,2021.2.3,MacIntel,62.5,611bcb5abee0cb706ff32d2b,6107d0959f7c4c3641818b95,611be115850b9f6062246fb6,0.332,
,,,,space,,0,271,271,220,1,U, , , , ,space,2500,2.5,,001,2021-08-17_17h18.04.464,natb3,2021.2.3,MacIntel,62.5,611bcb5abee0cb706ff32d2b,6107d0959f7c4c3641818b95,611be115850b9f6062246fb6,0.372,
,,,,space,,0,272,272,204,1,Z, , , , ,space,2000,2,,001,2021-08-17_17h18.04.464,natb3,2021.2.3,MacIntel,62.5,611bcb5abee0cb706ff32d2b,6107d0959f7c4c3641818b95,611be115850b9f6062246fb6,0.321,
,,,,space,,0,273,273,11,1,P, , , , ,space,2500,2.5,,001,2021-08-17_17h18.04.464,natb3,2021.2.3,MacIntel,62.5,611bcb5abee0cb706ff32d2b,6107d0959f7c4c3641818b95,611be115850b9f6062246fb6,0.4,
,,,,space,,0,274,274,113,1,W, , , , ,space,2500,2.5,,001,2021-08-17_17h18.04.464,natb3,2021.2.3,MacIntel,62.5,611bcb5abee0cb706ff32d2b,6107d0959f7c4c3641818b95,611be115850b9f6062246fb6,0.38,
,,,,space,,0,275,275,111,1,O, , , , ,space,2000,2,,001,2021-08-17_17h18.04.464,natb3,2021.2.3,MacIntel,62.5,611bcb5abee0cb706ff32d2b,6107d0959f7c4c3641818b95,611be115850b9f6062246fb6,0.491,
,,,,space,,0,276,276,331,1,Y, , , , ,space,2500,2.5,,001,2021-08-17_17h18.04.464,natb3,2021.2.3,MacIntel,62.5,611bcb5abee0cb706ff32d2b,6107d0959f7c4c3641818b95,611be115850b9f6062246fb6,0.448,
,,,,space,,0,277,277,282,1,X, , , , ,,2500,2.5,,001,2021-08-17_17h18.04.464,natb3,2021.2.3,MacIntel,62.5,611bcb5abee0cb706ff32d2b,6107d0959f7c4c3641818b95,611be115850b9f6062246fb6,0.445,
,,,,space,,0,278,278,155,1,O, , , , ,space,1500,1.5,,001,2021-08-17_17h18.04.464,natb3,2021.2.3,MacIntel,62.5,611bcb5abee0cb706ff32d2b,6107d0959f7c4c3641818b95,611be115850b9f6062246fb6,0.341,
,,,,space,,0,279,279,118,1,X, , , , ,,2000,2,,001,2021-08-17_17h18.04.464,natb3,2021.2.3,MacIntel,62.5,611bcb5abee0cb706ff32d2b,6107d0959f7c4c3641818b95,611be115850b9f6062246fb6,0.914,
,,,,space,,0,280,280,294,1,T, , , , ,space,2000,2,,001,2021-08-17_17h18.04.464,natb3,2021.2.3,MacIntel,62.5,611bcb5abee0cb706ff32d2b,6107d0959f7c4c3641818b95,611be115850b9f6062246fb6,0.413,
,,,,space,,0,281,281,185,1,Y, , , , ,space,2500,2.5,,001,2021-08-17_17h18.04.464,natb3,2021.2.3,MacIntel,62.5,611bcb5abee0cb706ff32d2b,6107d0959f7c4c3641818b95,611be115850b9f6062246fb6,0.35,
,,,,,,0,282,282,51,1,X,7,5,8, ,,1500,1.5,,001,2021-08-17_17h18.04.464,natb3,2021.2.3,MacIntel,62.5,611bcb5abee0cb706ff32d2b,6107d0959f7c4c3641818b95,611be115850b9f6062246fb6,,
,,,,,,0,283,283,89,1,X,3, , , ,,2000,2,,001,2021-08-17_17h18.04.464,natb3,2021.2.3,MacIntel,62.5,611bcb5abee0cb706ff32d2b,6107d0959f7c4c3641818b95,611be115850b9f6062246fb6,,
,,,,,,0,284,284,15,1,X, , , , ,,1500,1.5,,001,2021-08-17_17h18.04.464,natb3,2021.2.3,MacIntel,62.5,611bcb5abee0cb706ff32d2b,6107d0959f7c4c3641818b95,611be115850b9f6062246fb6,,
,,,,,,0,285,285,229,1,X,8, ,2,6,,2500,2.5,,001,2021-08-17_17h18.04.464,natb3,2021.2.3,MacIntel,62.5,611bcb5abee0cb706ff32d2b,6107d0959f7c4c3641818b95,611be115850b9f6062246fb6,,
,,,,space,,0,286,286,9,1,I, , , , ,space,1500,1.5,,001,2021-08-17_17h18.04.464,natb3,2021.2.3,MacIntel,62.5,611bcb5abee0cb706ff32d2b,6107d0959f7c4c3641818b95,611be115850b9f6062246fb6,0.429,
,,,,,,0,287,287,203,1,X, , , , ,,2500,2.5,,001,2021-08-17_17h18.04.464,natb3,2021.2.3,MacIntel,62.5,611bcb5abee0cb706ff32d2b,6107d0959f7c4c3641818b95,611be115850b9f6062246fb6,,
,,,,space,,0,288,288,36,1,W, , , , ,space,2000,2,,001,2021-08-17_17h18.04.464,natb3,2021.2.3,MacIntel,62.5,611bcb5abee0cb706ff32d2b,6107d0959f7c4c3641818b95,611be115850b9f6062246fb6,0.295,
,,,,space,,0,289,289,55,1,H, , , , ,space,2500,2.5,,001,2021-08-17_17h18.04.464,natb3,2021.2.3,MacIntel,62.5,611bcb5abee0cb706ff32d2b,6107d0959f7c4c3641818b95,611be115850b9f6062246fb6,0.343,
,,,,space,,0,290,290,132,1,H, , , , ,space,2500,2.5,,001,2021-08-17_17h18.04.464,natb3,2021.2.3,MacIntel,62.5,611bcb5abee0cb706ff32d2b,6107d0959f7c4c3641818b95,611be115850b9f6062246fb6,0.351,
,,,,space,,0,291,291,231,1,I, , , , ,space,2500,2.5,,001,2021-08-17_17h18.04.464,natb3,2021.2.3,MacIntel,62.5,611bcb5abee0cb706ff32d2b,6107d0959f7c4c3641818b95,611be115850b9f6062246fb6,0.332,
,,,,space,,0,292,292,223,1,Q, , , , ,space,2000,2,,001,2021-08-17_17h18.04.464,natb3,2021.2.3,MacIntel,62.5,611bcb5abee0cb706ff32d2b,6107d0959f7c4c3641818b95,611be115850b9f6062246fb6,0.363,
,,,,space,,0,293,293,136,1,Z, , , , ,space,2500,2.5,,001,2021-08-17_17h18.04.464,natb3,2021.2.3,MacIntel,62.5,611bcb5abee0cb706ff32d2b,6107d0959f7c4c3641818b95,611be115850b9f6062246fb6,0.281,
,,,,space,,0,294,294,303,1,A, , , , ,space,2000,2,,001,2021-08-17_17h18.04.464,natb3,2021.2.3,MacIntel,62.5,611bcb5abee0cb706ff32d2b,6107d0959f7c4c3641818b95,611be115850b9f6062246fb6,0.449,
,,,,space,,0,295,295,114,1,E, , , , ,space,2000,2,,001,2021-08-17_17h18.04.464,natb3,2021.2.3,MacIntel,62.5,611bcb5abee0cb706ff32d2b,6107d0959f7c4c3641818b95,611be115850b9f6062246fb6,0.375,
,,,,space,,0,296,296,123,1,O, , , , ,space,1500,1.5,,001,2021-08-17_17h18.04.464,natb3,2021.2.3,MacIntel,62.5,611bcb5abee0cb706ff32d2b,6107d0959f7c4c3641818b95,611be115850b9f6062246fb6,0.313,
,,,,space,,0,297,297,131,1,G, , , , ,space,1500,1.5,,001,2021-08-17_17h18.04.464,natb3,2021.2.3,MacIntel,62.5,611bcb5abee0cb706ff32d2b,6107d0959f7c4c3641818b95,611be115850b9f6062246fb6,0.349,
,,,,space,,0,298,298,261,1,T, , , , ,space,2000,2,,001,2021-08-17_17h18.04.464,natb3,2021.2.3,MacIntel,62.5,611bcb5abee0cb706ff32d2b,6107d0959f7c4c3641818b95,611be115850b9f6062246fb6,0.36,
,,,,space,,0,299,299,59,1,Z, , , , ,space,2000,2,,001,2021-08-17_17h18.04.464,natb3,2021.2.3,MacIntel,62.5,611bcb5abee0cb706ff32d2b,6107d0959f7c4c3641818b95,611be115850b9f6062246fb6,0.347,
,,,,space,,0,300,300,280,1,L, , , , ,space,1500,1.5,,001,2021-08-17_17h18.04.464,natb3,2021.2.3,MacIntel,62.5,611bcb5abee0cb706ff32d2b,6107d0959f7c4c3641818b95,611be115850b9f6062246fb6,0.374,
,,,,space,,0,301,301,275,1,G, , , , ,space,1500,1.5,,001,2021-08-17_17h18.04.464,natb3,2021.2.3,MacIntel,62.5,611bcb5abee0cb706ff32d2b,6107d0959f7c4c3641818b95,611be115850b9f6062246fb6,0.332,
,,,,space,,0,302,302,126,1,A, , , , ,space,2500,2.5,,001,2021-08-17_17h18.04.464,natb3,2021.2.3,MacIntel,62.5,611bcb5abee0cb706ff32d2b,6107d0959f7c4c3641818b95,611be115850b9f6062246fb6,0.336,
,,,,space,,0,303,303,170,1,Z, , , , ,space,2000,2,,001,2021-08-17_17h18.04.464,natb3,2021.2.3,MacIntel,62.5,611bcb5abee0cb706ff32d2b,6107d0959f7c4c3641818b95,611be115850b9f6062246fb6,0.327,
,,,,space,,0,304,304,112,1,Q, , , , ,space,2500,2.5,,001,2021-08-17_17h18.04.464,natb3,2021.2.3,MacIntel,62.5,611bcb5abee0cb706ff32d2b,6107d0959f7c4c3641818b95,611be115850b9f6062246fb6,0.393,
,,,,space,,0,305,305,207,1,X,9, ,2, ,,2500,2.5,,001,2021-08-17_17h18.04.464,natb3,2021.2.3,MacIntel,62.5,611bcb5abee0cb706ff32d2b,6107d0959f7c4c3641818b95,611be115850b9f6062246fb6,0.316,
,,,,,,0,306,306,35,1,X, , , , ,,2500,2.5,,001,2021-08-17_17h18.04.464,natb3,2021.2.3,MacIntel,62.5,611bcb5abee0cb706ff32d2b,6107d0959f7c4c3641818b95,611be115850b9f6062246fb6,,
,,,,,,0,307,307,233,1,X, ,2, ,5,,1500,1.5,,001,2021-08-17_17h18.04.464,natb3,2021.2.3,MacIntel,62.5,611bcb5abee0cb706ff32d2b,6107d0959f7c4c3641818b95,611be115850b9f6062246fb6,,
,,,,space,,0,308,308,307,1,F, , , , ,space,2500,2.5,,001,2021-08-17_17h18.04.464,natb3,2021.2.3,MacIntel,62.5,611bcb5abee0cb706ff32d2b,6107d0959f7c4c3641818b95,611be115850b9f6062246fb6,0.472,
,,,,space,,0,309,309,285,1,B, , , , ,space,1500,1.5,,001,2021-08-17_17h18.04.464,natb3,2021.2.3,MacIntel,62.5,611bcb5abee0cb706ff32d2b,6107d0959f7c4c3641818b95,611be115850b9f6062246fb6,0.344,
,,,,space,,0,310,310,326,1,W, , , , ,space,2000,2,,001,2021-08-17_17h18.04.464,natb3,2021.2.3,MacIntel,62.5,611bcb5abee0cb706ff32d2b,6107d0959f7c4c3641818b95,611be115850b9f6062246fb6,0.414,
,,,,space,,0,311,311,239,1,X, , , , ,,2000,2,,001,2021-08-17_17h18.04.464,natb3,2021.2.3,MacIntel,62.5,611bcb5abee0cb706ff32d2b,6107d0959f7c4c3641818b95,611be115850b9f6062246fb6,0.381,
,,,,space,,0,312,312,208,1,B, , , , ,space,1500,1.5,,001,2021-08-17_17h18.04.464,natb3,2021.2.3,MacIntel,62.5,611bcb5abee0cb706ff32d2b,6107d0959f7c4c3641818b95,611be115850b9f6062246fb6,0.336,
,,,,space,,0,313,313,129,1,X,2,3,5, ,,1500,1.5,,001,2021-08-17_17h18.04.464,natb3,2021.2.3,MacIntel,62.5,611bcb5abee0cb706ff32d2b,6107d0959f7c4c3641818b95,611be115850b9f6062246fb6,0.302,
,,,,space,,0,314,314,163,1,G, , , , ,space,2500,2.5,,001,2021-08-17_17h18.04.464,natb3,2021.2.3,MacIntel,62.5,611bcb5abee0cb706ff32d2b,6107d0959f7c4c3641818b95,611be115850b9f6062246fb6,0.509,
,,,,space,,0,315,315,37,1,E, , , , ,space,2500,2.5,,001,2021-08-17_17h18.04.464,natb3,2021.2.3,MacIntel,62.5,611bcb5abee0cb706ff32d2b,6107d0959f7c4c3641818b95,611be115850b9f6062246fb6,0.537,
,,,,space,,0,316,316,274,1,F, , , , ,space,2000,2,,001,2021-08-17_17h18.04.464,natb3,2021.2.3,MacIntel,62.5,611bcb5abee0cb706ff32d2b,6107d0959f7c4c3641818b95,611be115850b9f6062246fb6,0.429,
,,,,space,,0,317,317,13,1,A, , , , ,space,2000,2,,001,2021-08-17_17h18.04.464,natb3,2021.2.3,MacIntel,62.5,611bcb5abee0cb706ff32d2b,6107d0959f7c4c3641818b95,611be115850b9f6062246fb6,0.368,
,,,,space,,0,318,318,202,1,L, , , , ,space,2500,2.5,,001,2021-08-17_17h18.04.464,natb3,2021.2.3,MacIntel,62.5,611bcb5abee0cb706ff32d2b,6107d0959f7c4c3641818b95,611be115850b9f6062246fb6,0.388,
,,,,space,,0,319,319,58,1,L, , , , ,space,2000,2,,001,2021-08-17_17h18.04.464,natb3,2021.2.3,MacIntel,62.5,611bcb5abee0cb706ff32d2b,6107d0959f7c4c3641818b95,611be115850b9f6062246fb6,0.345,
,,,,space,,0,320,320,281,1,Z, , , , ,space,1500,1.5,,001,2021-08-17_17h18.04.464,natb3,2021.2.3,MacIntel,62.5,611bcb5abee0cb706ff32d2b,6107d0959f7c4c3641818b95,611be115850b9f6062246fb6,0.337,
,,,,space,,0,321,321,210,1,M, , , , ,space,1500,1.5,,001,2021-08-17_17h18.04.464,natb3,2021.2.3,MacIntel,62.5,611bcb5abee0cb706ff32d2b,6107d0959f7c4c3641818b95,611be115850b9f6062246fb6,0.335,
,,,,space,,0,322,322,313,1,X, , , , ,,2500,2.5,,001,2021-08-17_17h18.04.464,natb3,2021.2.3,MacIntel,62.5,611bcb5abee0cb706ff32d2b,6107d0959f7c4c3641818b95,611be115850b9f6062246fb6,0.394,
,,,,space,,0,323,323,212,1,Q, , , , ,space,2500,2.5,,001,2021-08-17_17h18.04.464,natb3,2021.2.3,MacIntel,62.5,611bcb5abee0cb706ff32d2b,6107d0959f7c4c3641818b95,611be115850b9f6062246fb6,0.373,
,,,,space,,0,324,324,2,1,E, , , , ,space,2500,2.5,,001,2021-08-17_17h18.04.464,natb3,2021.2.3,MacIntel,62.5,611bcb5abee0cb706ff32d2b,6107d0959f7c4c3641818b95,611be115850b9f6062246fb6,0.377,
,,,,space,,0,325,325,76,1,I, , , , ,space,2000,2,,001,2021-08-17_17h18.04.464,natb3,2021.2.3,MacIntel,62.5,611bcb5abee0cb706ff32d2b,6107d0959f7c4c3641818b95,611be115850b9f6062246fb6,0.356,
,,,,space,,0,326,326,186,1,U, , , , ,space,2500,2.5,,001,2021-08-17_17h18.04.464,natb3,2021.2.3,MacIntel,62.5,611bcb5abee0cb706ff32d2b,6107d0959f7c4c3641818b95,611be115850b9f6062246fb6,0.363,
,,,,space,,0,327,327,320,1,B, , , , ,space,1500,1.5,,001,2021-08-17_17h18.04.464,natb3,2021.2.3,MacIntel,62.5,611bcb5abee0cb706ff32d2b,6107d0959f7c4c3641818b95,611be115850b9f6062246fb6,0.356,
,,,,space,,0,328,328,53,1,G, , , , ,space,2500,2.5,,001,2021-08-17_17h18.04.464,natb3,2021.2.3,MacIntel,62.5,611bcb5abee0cb706ff32d2b,6107d0959f7c4c3641818b95,611be115850b9f6062246fb6,0.38,
,,,,space,,0,329,329,266,1,O, , , , ,space,1500,1.5,,001,2021-08-17_17h18.04.464,natb3,2021.2.3,MacIntel,62.5,611bcb5abee0cb706ff32d2b,6107d0959f7c4c3641818b95,611be115850b9f6062246fb6,0.32,
,,,,space,,0,330,330,221,1,I, , , , ,space,2500,2.5,,001,2021-08-17_17h18.04.464,natb3,2021.2.3,MacIntel,62.5,611bcb5abee0cb706ff32d2b,6107d0959f7c4c3641818b95,611be115850b9f6062246fb6,0.355,
,,,,space,,0,331,331,330,1,T, , , , ,space,2500,2.5,,001,2021-08-17_17h18.04.464,natb3,2021.2.3,MacIntel,62.5,611bcb5abee0cb706ff32d2b,6107d0959f7c4c3641818b95,611be115850b9f6062246fb6,0.311,
,,,,,,0,332,332,179,1,X, ,9, ,2,,1500,1.5,,001,2021-08-17_17h18.04.464,natb3,2021.2.3,MacIntel,62.5,611bcb5abee0cb706ff32d2b,6107d0959f7c4c3641818b95,611be115850b9f6062246fb6,,
,,,,space,,0,333,333,47,1,P, , , , ,space,2000,2,,001,2021-08-17_17h18.04.464,natb3,2021.2.3,MacIntel,62.5,611bcb5abee0cb706ff32d2b,6107d0959f7c4c3641818b95,611be115850b9f6062246fb6,0.368,
,,,,space,,0,334,334,256,1,Q, , , , ,space,2000,2,,001,2021-08-17_17h18.04.464,natb3,2021.2.3,MacIntel,62.5,611bcb5abee0cb706ff32d2b,6107d0959f7c4c3641818b95,611be115850b9f6062246fb6,0.344,
,,,,,,0,335,335,175,1,X,7, ,4,2,,1500,1.5,,001,2021-08-17_17h18.04.464,natb3,2021.2.3,MacIntel,62.5,611bcb5abee0cb706ff32d2b,6107d0959f7c4c3641818b95,611be115850b9f6062246fb6,,
