key_resp_2.keys,key_resp_2.rt,key_resp_3.keys,key_resp_3.rt,key_resp.keys,key_resp.rt,key_resp_4.keys,trials.thisRepN,trials.thisTrialN,trials.thisN,trials.thisIndex,trials.ran,stimulus,distractor1,distractor2,distractor3,distractor4,CorrAns,isi_duration,isi_dur_in_seconds,participant,session,date,expName,psychopyVersion,OS,frameRate,PROLIFIC_PID,STUDY_ID,SESSION_ID,key_resp_4.rt
return,9.4089,space,94.2532,space,0.5725,,0,0,0,306,1,D, , , , ,space,2000,2,,001,2021-08-19_16h09.02.693,natb3,2021.2.3,MacIntel,60.0024001,610ea2d0044e58da001f025d,611e07ecdcc96256ae8d5b80,611e72fb3bdb1cf49aef65c6,
,,,,space,0.3565,,0,1,1,30,1,N, , , , ,space,2500,2.5,,001,2021-08-19_16h09.02.693,natb3,2021.2.3,MacIntel,60.0024001,610ea2d0044e58da001f025d,611e07ecdcc96256ae8d5b80,611e72fb3bdb1cf49aef65c6,
,,,,space,0.3418,,0,2,2,176,1,N, , , , ,space,1500,1.5,,001,2021-08-19_16h09.02.693,natb3,2021.2.3,MacIntel,60.0024001,610ea2d0044e58da001f025d,611e07ecdcc96256ae8d5b80,611e72fb3bdb1cf49aef65c6,
,,,,space,0.4259,,0,3,3,128,1,D, , , , ,space,2500,2.5,,001,2021-08-19_16h09.02.693,natb3,2021.2.3,MacIntel,60.0024001,610ea2d0044e58da001f025d,611e07ecdcc96256ae8d5b80,611e72fb3bdb1cf49aef65c6,
,,,,space,0.3312,,0,4,4,29,1,B, , , , ,space,1500,1.5,,001,2021-08-19_16h09.02.693,natb3,2021.2.3,MacIntel,60.0024001,610ea2d0044e58da001f025d,611e07ecdcc96256ae8d5b80,611e72fb3bdb1cf49aef65c6,
,,,,space,0.3096,,0,5,5,297,1,U, , , , ,space,2000,2,,001,2021-08-19_16h09.02.693,natb3,2021.2.3,MacIntel,60.0024001,610ea2d0044e58da001f025d,611e07ecdcc96256ae8d5b80,611e72fb3bdb1cf49aef65c6,
,,,,space,0.2472,,0,6,6,180,1,W, , , , ,space,2000,2,,001,2021-08-19_16h09.02.693,natb3,2021.2.3,MacIntel,60.0024001,610ea2d0044e58da001f025d,611e07ecdcc96256ae8d5b80,611e72fb3bdb1cf49aef65c6,
,,,,space,0.332,,0,7,7,216,1,R, , , , ,space,1500,1.5,,001,2021-08-19_16h09.02.693,natb3,2021.2.3,MacIntel,60.0024001,610ea2d0044e58da001f025d,611e07ecdcc96256ae8d5b80,611e72fb3bdb1cf49aef65c6,
,,,,space,0.3161,,0,8,8,100,1,M, , , , ,space,2000,2,,001,2021-08-19_16h09.02.693,natb3,2021.2.3,MacIntel,60.0024001,610ea2d0044e58da001f025d,611e07ecdcc96256ae8d5b80,611e72fb3bdb1cf49aef65c6,
,,,,,,,0,9,9,233,1,X, ,2, ,5,,1500,1.5,,001,2021-08-19_16h09.02.693,natb3,2021.2.3,MacIntel,60.0024001,610ea2d0044e58da001f025d,611e07ecdcc96256ae8d5b80,611e72fb3bdb1cf49aef65c6,
,,,,space,0.3158,,0,10,10,284,1,V, , , , ,space,2500,2.5,,001,2021-08-19_16h09.02.693,natb3,2021.2.3,MacIntel,60.0024001,610ea2d0044e58da001f025d,611e07ecdcc96256ae8d5b80,611e72fb3bdb1cf49aef65c6,
,,,,space,0.2729,,0,11,11,126,1,A, , , , ,space,2500,2.5,,001,2021-08-19_16h09.02.693,natb3,2021.2.3,MacIntel,60.0024001,610ea2d0044e58da001f025d,611e07ecdcc96256ae8d5b80,611e72fb3bdb1cf49aef65c6,
,,,,space,0.2586,,0,12,12,142,1,N, , , , ,space,2500,2.5,,001,2021-08-19_16h09.02.693,natb3,2021.2.3,MacIntel,60.0024001,610ea2d0044e58da001f025d,611e07ecdcc96256ae8d5b80,611e72fb3bdb1cf49aef65c6,
,,,,space,0.2898,,0,13,13,214,1,W, , , , ,space,2000,2,,001,2021-08-19_16h09.02.693,natb3,2021.2.3,MacIntel,60.0024001,610ea2d0044e58da001f025d,611e07ecdcc96256ae8d5b80,611e72fb3bdb1cf49aef65c6,
,,,,space,0.2762,,0,14,14,63,1,B, , , , ,space,2000,2,,001,2021-08-19_16h09.02.693,natb3,2021.2.3,MacIntel,60.0024001,610ea2d0044e58da001f025d,611e07ecdcc96256ae8d5b80,611e72fb3bdb1cf49aef65c6,
,,,,space,0.29,,0,15,15,245,1,K, , , , ,space,2000,2,,001,2021-08-19_16h09.02.693,natb3,2021.2.3,MacIntel,60.0024001,610ea2d0044e58da001f025d,611e07ecdcc96256ae8d5b80,611e72fb3bdb1cf49aef65c6,
,,,,space,0.3491,,0,16,16,325,1,X, , , , ,,2500,2.5,,001,2021-08-19_16h09.02.693,natb3,2021.2.3,MacIntel,60.0024001,610ea2d0044e58da001f025d,611e07ecdcc96256ae8d5b80,611e72fb3bdb1cf49aef65c6,
,,,,space,0.3162,,0,17,17,47,1,P, , , , ,space,2000,2,,001,2021-08-19_16h09.02.693,natb3,2021.2.3,MacIntel,60.0024001,610ea2d0044e58da001f025d,611e07ecdcc96256ae8d5b80,611e72fb3bdb1cf49aef65c6,
,,,,space,0.2919,,0,18,18,332,1,U, , , , ,space,2000,2,,001,2021-08-19_16h09.02.693,natb3,2021.2.3,MacIntel,60.0024001,610ea2d0044e58da001f025d,611e07ecdcc96256ae8d5b80,611e72fb3bdb1cf49aef65c6,
,,,,,,,0,19,19,157,1,A, , , , ,space,2500,2.5,,001,2021-08-19_16h09.02.693,natb3,2021.2.3,MacIntel,60.0024001,610ea2d0044e58da001f025d,611e07ecdcc96256ae8d5b80,611e72fb3bdb1cf49aef65c6,
,,,,,,,0,20,20,318,1,X, , , , ,,1500,1.5,,001,2021-08-19_16h09.02.693,natb3,2021.2.3,MacIntel,60.0024001,610ea2d0044e58da001f025d,611e07ecdcc96256ae8d5b80,611e72fb3bdb1cf49aef65c6,
,,,,space,0.4832,,0,21,21,146,1,W, , , , ,space,1500,1.5,,001,2021-08-19_16h09.02.693,natb3,2021.2.3,MacIntel,60.0024001,610ea2d0044e58da001f025d,611e07ecdcc96256ae8d5b80,611e72fb3bdb1cf49aef65c6,
,,,,space,0.4061,,0,22,22,73,1,Y, , , , ,space,2000,2,,001,2021-08-19_16h09.02.693,natb3,2021.2.3,MacIntel,60.0024001,610ea2d0044e58da001f025d,611e07ecdcc96256ae8d5b80,611e72fb3bdb1cf49aef65c6,
,,,,,,,0,23,23,60,1,X,7,3,5, ,,1500,1.5,,001,2021-08-19_16h09.02.693,natb3,2021.2.3,MacIntel,60.0024001,610ea2d0044e58da001f025d,611e07ecdcc96256ae8d5b80,611e72fb3bdb1cf49aef65c6,
,,,,space,0.3533,,0,24,24,83,1,D, , , , ,space,2000,2,,001,2021-08-19_16h09.02.693,natb3,2021.2.3,MacIntel,60.0024001,610ea2d0044e58da001f025d,611e07ecdcc96256ae8d5b80,611e72fb3bdb1cf49aef65c6,
,,,,space,0.2893,,0,25,25,197,1,G, , , , ,space,2500,2.5,,001,2021-08-19_16h09.02.693,natb3,2021.2.3,MacIntel,60.0024001,610ea2d0044e58da001f025d,611e07ecdcc96256ae8d5b80,611e72fb3bdb1cf49aef65c6,
,,,,space,0.2421,,0,26,26,331,1,Y, , , , ,space,2500,2.5,,001,2021-08-19_16h09.02.693,natb3,2021.2.3,MacIntel,60.0024001,610ea2d0044e58da001f025d,611e07ecdcc96256ae8d5b80,611e72fb3bdb1cf49aef65c6,
,,,,space,0.3668,,0,27,27,48,1,A, , , , ,space,2500,2.5,,001,2021-08-19_16h09.02.693,natb3,2021.2.3,MacIntel,60.0024001,610ea2d0044e58da001f025d,611e07ecdcc96256ae8d5b80,611e72fb3bdb1cf49aef65c6,
,,,,space,0.3072,,0,28,28,21,1,J, , , , ,space,1500,1.5,,001,2021-08-19_16h09.02.693,natb3,2021.2.3,MacIntel,60.0024001,610ea2d0044e58da001f025d,611e07ecdcc96256ae8d5b80,611e72fb3bdb1cf49aef65c6,
,,,,space,0.3402,,0,29,29,32,1,M, , , , ,space,1500,1.5,,001,2021-08-19_16h09.02.693,natb3,2021.2.3,MacIntel,60.0024001,610ea2d0044e58da001f025d,611e07ecdcc96256ae8d5b80,611e72fb3bdb1cf49aef65c6,
,,,,space,0.399,,0,30,30,120,1,U, , , , ,space,1500,1.5,,001,2021-08-19_16h09.02.693,natb3,2021.2.3,MacIntel,60.0024001,610ea2d0044e58da001f025d,611e07ecdcc96256ae8d5b80,611e72fb3bdb1cf49aef65c6,
,,,,space,0.3897,,0,31,31,215,1,E, , , , ,space,2500,2.5,,001,2021-08-19_16h09.02.693,natb3,2021.2.3,MacIntel,60.0024001,610ea2d0044e58da001f025d,611e07ecdcc96256ae8d5b80,611e72fb3bdb1cf49aef65c6,
,,,,,,,0,32,32,335,1,P,,,,,space,1500,1.5,,001,2021-08-19_16h09.02.693,natb3,2021.2.3,MacIntel,60.0024001,610ea2d0044e58da001f025d,611e07ecdcc96256ae8d5b80,611e72fb3bdb1cf49aef65c6,
,,,,space,0.4026,,0,33,33,161,1,F, , , , ,space,1500,1.5,,001,2021-08-19_16h09.02.693,natb3,2021.2.3,MacIntel,60.0024001,610ea2d0044e58da001f025d,611e07ecdcc96256ae8d5b80,611e72fb3bdb1cf49aef65c6,
,,,,space,0.3506,,0,34,34,243,1,X, , , , ,,2500,2.5,,001,2021-08-19_16h09.02.693,natb3,2021.2.3,MacIntel,60.0024001,610ea2d0044e58da001f025d,611e07ecdcc96256ae8d5b80,611e72fb3bdb1cf49aef65c6,
,,,,space,0.2827,,0,35,35,41,1,Y, , , , ,space,2500,2.5,,001,2021-08-19_16h09.02.693,natb3,2021.2.3,MacIntel,60.0024001,610ea2d0044e58da001f025d,611e07ecdcc96256ae8d5b80,611e72fb3bdb1cf49aef65c6,
,,,,space,0.3585,,0,36,36,103,1,W, , , , ,space,2000,2,,001,2021-08-19_16h09.02.693,natb3,2021.2.3,MacIntel,60.0024001,610ea2d0044e58da001f025d,611e07ecdcc96256ae8d5b80,611e72fb3bdb1cf49aef65c6,
,,,,space,0.4089,,0,37,37,17,1,F, , , , ,space,2500,2.5,,001,2021-08-19_16h09.02.693,natb3,2021.2.3,MacIntel,60.0024001,610ea2d0044e58da001f025d,611e07ecdcc96256ae8d5b80,611e72fb3bdb1cf49aef65c6,
,,,,space,0.3275,,0,38,38,34,1,Q, , , , ,space,2500,2.5,,001,2021-08-19_16h09.02.693,natb3,2021.2.3,MacIntel,60.0024001,610ea2d0044e58da001f025d,611e07ecdcc96256ae8d5b80,611e72fb3bdb1cf49aef65c6,
,,,,space,0.7116,,0,39,39,218,1,X,1,3, ,8,,1500,1.5,,001,2021-08-19_16h09.02.693,natb3,2021.2.3,MacIntel,60.0024001,610ea2d0044e58da001f025d,611e07ecdcc96256ae8d5b80,611e72fb3bdb1cf49aef65c6,
,,,,space,0.2823,,0,40,40,141,1,X,1, ,4,6,,1500,1.5,,001,2021-08-19_16h09.02.693,natb3,2021.2.3,MacIntel,60.0024001,610ea2d0044e58da001f025d,611e07ecdcc96256ae8d5b80,611e72fb3bdb1cf49aef65c6,
,,,,,,,0,41,41,255,1,X, , , , ,,1500,1.5,,001,2021-08-19_16h09.02.693,natb3,2021.2.3,MacIntel,60.0024001,610ea2d0044e58da001f025d,611e07ecdcc96256ae8d5b80,611e72fb3bdb1cf49aef65c6,
,,,,,,,0,42,42,191,1,X,1, ,3,4,,2500,2.5,,001,2021-08-19_16h09.02.693,natb3,2021.2.3,MacIntel,60.0024001,610ea2d0044e58da001f025d,611e07ecdcc96256ae8d5b80,611e72fb3bdb1cf49aef65c6,
,,,,,,,0,43,43,116,1,X, , , , ,,2000,2,,001,2021-08-19_16h09.02.693,natb3,2021.2.3,MacIntel,60.0024001,610ea2d0044e58da001f025d,611e07ecdcc96256ae8d5b80,611e72fb3bdb1cf49aef65c6,
,,,,space,0.4847,,0,44,44,8,1,U, , , , ,space,1500,1.5,,001,2021-08-19_16h09.02.693,natb3,2021.2.3,MacIntel,60.0024001,610ea2d0044e58da001f025d,611e07ecdcc96256ae8d5b80,611e72fb3bdb1cf49aef65c6,
,,,,space,0.4141,,0,45,45,169,1,L, , , , ,space,2500,2.5,,001,2021-08-19_16h09.02.693,natb3,2021.2.3,MacIntel,60.0024001,610ea2d0044e58da001f025d,611e07ecdcc96256ae8d5b80,611e72fb3bdb1cf49aef65c6,
,,,,,,,0,46,46,259,1,X,8, , ,3,,2500,2.5,,001,2021-08-19_16h09.02.693,natb3,2021.2.3,MacIntel,60.0024001,610ea2d0044e58da001f025d,611e07ecdcc96256ae8d5b80,611e72fb3bdb1cf49aef65c6,
,,,,space,0.2966,,0,47,47,99,1,N, , , , ,space,2500,2.5,,001,2021-08-19_16h09.02.693,natb3,2021.2.3,MacIntel,60.0024001,610ea2d0044e58da001f025d,611e07ecdcc96256ae8d5b80,611e72fb3bdb1cf49aef65c6,
,,,,space,0.4342,,0,48,48,80,1,A, , , , ,space,2000,2,,001,2021-08-19_16h09.02.693,natb3,2021.2.3,MacIntel,60.0024001,610ea2d0044e58da001f025d,611e07ecdcc96256ae8d5b80,611e72fb3bdb1cf49aef65c6,
,,,,,,,0,49,49,268,1,X,6, ,3, ,,2500,2.5,,001,2021-08-19_16h09.02.693,natb3,2021.2.3,MacIntel,60.0024001,610ea2d0044e58da001f025d,611e07ecdcc96256ae8d5b80,611e72fb3bdb1cf49aef65c6,
,,,,space,0.3155,,0,50,50,307,1,F, , , , ,space,2500,2.5,,001,2021-08-19_16h09.02.693,natb3,2021.2.3,MacIntel,60.0024001,610ea2d0044e58da001f025d,611e07ecdcc96256ae8d5b80,611e72fb3bdb1cf49aef65c6,
,,,,space,0.3735,,0,51,51,316,1,Z, , , , ,space,1500,1.5,,001,2021-08-19_16h09.02.693,natb3,2021.2.3,MacIntel,60.0024001,610ea2d0044e58da001f025d,611e07ecdcc96256ae8d5b80,611e72fb3bdb1cf49aef65c6,
,,,,,,,0,52,52,74,1,X, ,4,3,2,,1500,1.5,,001,2021-08-19_16h09.02.693,natb3,2021.2.3,MacIntel,60.0024001,610ea2d0044e58da001f025d,611e07ecdcc96256ae8d5b80,611e72fb3bdb1cf49aef65c6,
,,,,space,0.3113,,0,53,53,156,1,P, , , , ,space,1500,1.5,,001,2021-08-19_16h09.02.693,natb3,2021.2.3,MacIntel,60.0024001,610ea2d0044e58da001f025d,611e07ecdcc96256ae8d5b80,611e72fb3bdb1cf49aef65c6,
,,,,space,0.4308,,0,54,54,76,1,I, , , , ,space,2000,2,,001,2021-08-19_16h09.02.693,natb3,2021.2.3,MacIntel,60.0024001,610ea2d0044e58da001f025d,611e07ecdcc96256ae8d5b80,611e72fb3bdb1cf49aef65c6,
,,,,space,0.3071,,0,55,55,62,1,V, , , , ,space,1500,1.5,,001,2021-08-19_16h09.02.693,natb3,2021.2.3,MacIntel,60.0024001,610ea2d0044e58da001f025d,611e07ecdcc96256ae8d5b80,611e72fb3bdb1cf49aef65c6,
,,,,,,,0,56,56,89,1,X,3, , , ,,2000,2,,001,2021-08-19_16h09.02.693,natb3,2021.2.3,MacIntel,60.0024001,610ea2d0044e58da001f025d,611e07ecdcc96256ae8d5b80,611e72fb3bdb1cf49aef65c6,
,,,,space,0.3657,,0,57,57,329,1,X,3,4, ,2,,2500,2.5,,001,2021-08-19_16h09.02.693,natb3,2021.2.3,MacIntel,60.0024001,610ea2d0044e58da001f025d,611e07ecdcc96256ae8d5b80,611e72fb3bdb1cf49aef65c6,
,,,,space,0.4571,,0,58,58,303,1,A, , , , ,space,2000,2,,001,2021-08-19_16h09.02.693,natb3,2021.2.3,MacIntel,60.0024001,610ea2d0044e58da001f025d,611e07ecdcc96256ae8d5b80,611e72fb3bdb1cf49aef65c6,
,,,,space,0.4331,,0,59,59,231,1,I, , , , ,space,2500,2.5,,001,2021-08-19_16h09.02.693,natb3,2021.2.3,MacIntel,60.0024001,610ea2d0044e58da001f025d,611e07ecdcc96256ae8d5b80,611e72fb3bdb1cf49aef65c6,
,,,,space,0.2898,,0,60,60,59,1,Z, , , , ,space,2000,2,,001,2021-08-19_16h09.02.693,natb3,2021.2.3,MacIntel,60.0024001,610ea2d0044e58da001f025d,611e07ecdcc96256ae8d5b80,611e72fb3bdb1cf49aef65c6,
,,,,space,0.3891,,0,61,61,77,1,O, , , , ,space,2000,2,,001,2021-08-19_16h09.02.693,natb3,2021.2.3,MacIntel,60.0024001,610ea2d0044e58da001f025d,611e07ecdcc96256ae8d5b80,611e72fb3bdb1cf49aef65c6,
,,,,space,0.3286,,0,62,62,35,1,X, , , , ,,2500,2.5,,001,2021-08-19_16h09.02.693,natb3,2021.2.3,MacIntel,60.0024001,610ea2d0044e58da001f025d,611e07ecdcc96256ae8d5b80,611e72fb3bdb1cf49aef65c6,
,,,,space,0.3066,,0,63,63,144,1,Q, , , , ,space,2500,2.5,,001,2021-08-19_16h09.02.693,natb3,2021.2.3,MacIntel,60.0024001,610ea2d0044e58da001f025d,611e07ecdcc96256ae8d5b80,611e72fb3bdb1cf49aef65c6,
,,,,,,,0,64,64,31,1,X, , , , ,,1500,1.5,,001,2021-08-19_16h09.02.693,natb3,2021.2.3,MacIntel,60.0024001,610ea2d0044e58da001f025d,611e07ecdcc96256ae8d5b80,611e72fb3bdb1cf49aef65c6,
,,,,space,0.3255,,0,65,65,319,1,V, , , , ,space,2000,2,,001,2021-08-19_16h09.02.693,natb3,2021.2.3,MacIntel,60.0024001,610ea2d0044e58da001f025d,611e07ecdcc96256ae8d5b80,611e72fb3bdb1cf49aef65c6,
,,,,space,0.3288,,0,66,66,9,1,I, , , , ,space,1500,1.5,,001,2021-08-19_16h09.02.693,natb3,2021.2.3,MacIntel,60.0024001,610ea2d0044e58da001f025d,611e07ecdcc96256ae8d5b80,611e72fb3bdb1cf49aef65c6,
,,,,space,0.3082,,0,67,67,105,1,R, , , , ,space,2500,2.5,,001,2021-08-19_16h09.02.693,natb3,2021.2.3,MacIntel,60.0024001,610ea2d0044e58da001f025d,611e07ecdcc96256ae8d5b80,611e72fb3bdb1cf49aef65c6,
,,,,space,0.3558,,0,68,68,96,1,X, , , , ,,1500,1.5,,001,2021-08-19_16h09.02.693,natb3,2021.2.3,MacIntel,60.0024001,610ea2d0044e58da001f025d,611e07ecdcc96256ae8d5b80,611e72fb3bdb1cf49aef65c6,
,,,,space,0.3594,,0,69,69,101,1,Q, , , , ,space,2500,2.5,,001,2021-08-19_16h09.02.693,natb3,2021.2.3,MacIntel,60.0024001,610ea2d0044e58da001f025d,611e07ecdcc96256ae8d5b80,611e72fb3bdb1cf49aef65c6,
,,,,space,0.4754,,0,70,70,25,1,Z, , , , ,space,2500,2.5,,001,2021-08-19_16h09.02.693,natb3,2021.2.3,MacIntel,60.0024001,610ea2d0044e58da001f025d,611e07ecdcc96256ae8d5b80,611e72fb3bdb1cf49aef65c6,
,,,,space,0.4171,,0,71,71,174,1,B, , , , ,space,2500,2.5,,001,2021-08-19_16h09.02.693,natb3,2021.2.3,MacIntel,60.0024001,610ea2d0044e58da001f025d,611e07ecdcc96256ae8d5b80,611e72fb3bdb1cf49aef65c6,
,,,,space,0.3992,,0,72,72,223,1,Q, , , , ,space,2000,2,,001,2021-08-19_16h09.02.693,natb3,2021.2.3,MacIntel,60.0024001,610ea2d0044e58da001f025d,611e07ecdcc96256ae8d5b80,611e72fb3bdb1cf49aef65c6,
,,,,space,0.4091,,0,73,73,204,1,Z, , , , ,space,2000,2,,001,2021-08-19_16h09.02.693,natb3,2021.2.3,MacIntel,60.0024001,610ea2d0044e58da001f025d,611e07ecdcc96256ae8d5b80,611e72fb3bdb1cf49aef65c6,
,,,,space,0.4004,,0,74,74,147,1,E, , , , ,space,2000,2,,001,2021-08-19_16h09.02.693,natb3,2021.2.3,MacIntel,60.0024001,610ea2d0044e58da001f025d,611e07ecdcc96256ae8d5b80,611e72fb3bdb1cf49aef65c6,
,,,,space,0.4011,,0,75,75,94,1,C, , , , ,space,2000,2,,001,2021-08-19_16h09.02.693,natb3,2021.2.3,MacIntel,60.0024001,610ea2d0044e58da001f025d,611e07ecdcc96256ae8d5b80,611e72fb3bdb1cf49aef65c6,
,,,,space,0.4012,,0,76,76,262,1,Y, , , , ,space,2500,2.5,,001,2021-08-19_16h09.02.693,natb3,2021.2.3,MacIntel,60.0024001,610ea2d0044e58da001f025d,611e07ecdcc96256ae8d5b80,611e72fb3bdb1cf49aef65c6,
,,,,space,0.3772,,0,77,77,149,1,R, , , , ,space,2000,2,,001,2021-08-19_16h09.02.693,natb3,2021.2.3,MacIntel,60.0024001,610ea2d0044e58da001f025d,611e07ecdcc96256ae8d5b80,611e72fb3bdb1cf49aef65c6,
,,,,space,0.4174,,0,78,78,131,1,G, , , , ,space,1500,1.5,,001,2021-08-19_16h09.02.693,natb3,2021.2.3,MacIntel,60.0024001,610ea2d0044e58da001f025d,611e07ecdcc96256ae8d5b80,611e72fb3bdb1cf49aef65c6,
,,,,space,0.3179,,0,79,79,125,1,X, , , , ,,2000,2,,001,2021-08-19_16h09.02.693,natb3,2021.2.3,MacIntel,60.0024001,610ea2d0044e58da001f025d,611e07ecdcc96256ae8d5b80,611e72fb3bdb1cf49aef65c6,
,,,,,,,0,80,80,213,1,X, , , , ,,2500,2.5,,001,2021-08-19_16h09.02.693,natb3,2021.2.3,MacIntel,60.0024001,610ea2d0044e58da001f025d,611e07ecdcc96256ae8d5b80,611e72fb3bdb1cf49aef65c6,
,,,,space,0.4002,,0,81,81,172,1,C, , , , ,space,1500,1.5,,001,2021-08-19_16h09.02.693,natb3,2021.2.3,MacIntel,60.0024001,610ea2d0044e58da001f025d,611e07ecdcc96256ae8d5b80,611e72fb3bdb1cf49aef65c6,
,,,,space,0.3596,,0,82,82,333,1,I, , , , ,space,1500,1.5,,001,2021-08-19_16h09.02.693,natb3,2021.2.3,MacIntel,60.0024001,610ea2d0044e58da001f025d,611e07ecdcc96256ae8d5b80,611e72fb3bdb1cf49aef65c6,
,,,,,,,0,83,83,315,1,X, , , , ,,2500,2.5,,001,2021-08-19_16h09.02.693,natb3,2021.2.3,MacIntel,60.0024001,610ea2d0044e58da001f025d,611e07ecdcc96256ae8d5b80,611e72fb3bdb1cf49aef65c6,
,,,,space,0.4174,,0,84,84,241,1,G, , , , ,space,2500,2.5,,001,2021-08-19_16h09.02.693,natb3,2021.2.3,MacIntel,60.0024001,610ea2d0044e58da001f025d,611e07ecdcc96256ae8d5b80,611e72fb3bdb1cf49aef65c6,
,,,,space,0.4842,,0,85,85,91,1,L, , , , ,space,2000,2,,001,2021-08-19_16h09.02.693,natb3,2021.2.3,MacIntel,60.0024001,610ea2d0044e58da001f025d,611e07ecdcc96256ae8d5b80,611e72fb3bdb1cf49aef65c6,
,,,,space,0.4027,,0,86,86,140,1,B, , , , ,space,2500,2.5,,001,2021-08-19_16h09.02.693,natb3,2021.2.3,MacIntel,60.0024001,610ea2d0044e58da001f025d,611e07ecdcc96256ae8d5b80,611e72fb3bdb1cf49aef65c6,
,,,,space,0.4,,0,87,87,328,1,R, , , , ,space,1500,1.5,,001,2021-08-19_16h09.02.693,natb3,2021.2.3,MacIntel,60.0024001,610ea2d0044e58da001f025d,611e07ecdcc96256ae8d5b80,611e72fb3bdb1cf49aef65c6,
,,,,space,0.3158,,0,88,88,159,1,S, , , , ,space,2500,2.5,,001,2021-08-19_16h09.02.693,natb3,2021.2.3,MacIntel,60.0024001,610ea2d0044e58da001f025d,611e07ecdcc96256ae8d5b80,611e72fb3bdb1cf49aef65c6,
,,,,,,,0,89,89,299,1,X, , , , ,,2500,2.5,,001,2021-08-19_16h09.02.693,natb3,2021.2.3,MacIntel,60.0024001,610ea2d0044e58da001f025d,611e07ecdcc96256ae8d5b80,611e72fb3bdb1cf49aef65c6,
,,,,space,0.4176,,0,90,90,246,1,L, , , , ,space,2500,2.5,,001,2021-08-19_16h09.02.693,natb3,2021.2.3,MacIntel,60.0024001,610ea2d0044e58da001f025d,611e07ecdcc96256ae8d5b80,611e72fb3bdb1cf49aef65c6,
,,,,space,0.4339,,0,91,91,185,1,Y, , , , ,space,2500,2.5,,001,2021-08-19_16h09.02.693,natb3,2021.2.3,MacIntel,60.0024001,610ea2d0044e58da001f025d,611e07ecdcc96256ae8d5b80,611e72fb3bdb1cf49aef65c6,
,,,,space,0.3839,,0,92,92,192,1,A, , , , ,space,2000,2,,001,2021-08-19_16h09.02.693,natb3,2021.2.3,MacIntel,60.0024001,610ea2d0044e58da001f025d,611e07ecdcc96256ae8d5b80,611e72fb3bdb1cf49aef65c6,
,,,,,,,0,93,93,291,1,X, , , , ,,2000,2,,001,2021-08-19_16h09.02.693,natb3,2021.2.3,MacIntel,60.0024001,610ea2d0044e58da001f025d,611e07ecdcc96256ae8d5b80,611e72fb3bdb1cf49aef65c6,
,,,,space,0.334,,0,94,94,290,1,W, , , , ,space,1500,1.5,,001,2021-08-19_16h09.02.693,natb3,2021.2.3,MacIntel,60.0024001,610ea2d0044e58da001f025d,611e07ecdcc96256ae8d5b80,611e72fb3bdb1cf49aef65c6,
,,,,space,0.3002,,0,95,95,139,1,V, , , , ,space,2000,2,,001,2021-08-19_16h09.02.693,natb3,2021.2.3,MacIntel,60.0024001,610ea2d0044e58da001f025d,611e07ecdcc96256ae8d5b80,611e72fb3bdb1cf49aef65c6,
,,,,space,0.5174,,0,96,96,279,1,K, , , , ,space,2500,2.5,,001,2021-08-19_16h09.02.693,natb3,2021.2.3,MacIntel,60.0024001,610ea2d0044e58da001f025d,611e07ecdcc96256ae8d5b80,611e72fb3bdb1cf49aef65c6,
,,,,space,0.3763,,0,97,97,65,1,M, , , , ,space,1500,1.5,,001,2021-08-19_16h09.02.693,natb3,2021.2.3,MacIntel,60.0024001,610ea2d0044e58da001f025d,611e07ecdcc96256ae8d5b80,611e72fb3bdb1cf49aef65c6,
,,,,space,0.5002,,0,98,98,135,1,K, , , , ,space,1500,1.5,,001,2021-08-19_16h09.02.693,natb3,2021.2.3,MacIntel,60.0024001,610ea2d0044e58da001f025d,611e07ecdcc96256ae8d5b80,611e72fb3bdb1cf49aef65c6,
,,,,space,0.3498,,0,99,99,124,1,P, , , , ,space,2000,2,,001,2021-08-19_16h09.02.693,natb3,2021.2.3,MacIntel,60.0024001,610ea2d0044e58da001f025d,611e07ecdcc96256ae8d5b80,611e72fb3bdb1cf49aef65c6,
,,,,space,0.3183,,0,100,100,272,1,D, , , , ,space,2000,2,,001,2021-08-19_16h09.02.693,natb3,2021.2.3,MacIntel,60.0024001,610ea2d0044e58da001f025d,611e07ecdcc96256ae8d5b80,611e72fb3bdb1cf49aef65c6,
,,,,space,0.3286,,0,101,101,267,1,P, , , , ,space,2000,2,,001,2021-08-19_16h09.02.693,natb3,2021.2.3,MacIntel,60.0024001,610ea2d0044e58da001f025d,611e07ecdcc96256ae8d5b80,611e72fb3bdb1cf49aef65c6,
,,,,space,0.3418,,0,102,102,188,1,I, , , , ,space,2500,2.5,,001,2021-08-19_16h09.02.693,natb3,2021.2.3,MacIntel,60.0024001,610ea2d0044e58da001f025d,611e07ecdcc96256ae8d5b80,611e72fb3bdb1cf49aef65c6,
,,,,space,0.3358,,0,103,103,276,1,H, , , , ,space,2000,2,,001,2021-08-19_16h09.02.693,natb3,2021.2.3,MacIntel,60.0024001,610ea2d0044e58da001f025d,611e07ecdcc96256ae8d5b80,611e72fb3bdb1cf49aef65c6,
,,,,space,0.3257,,0,104,104,123,1,O, , , , ,space,1500,1.5,,001,2021-08-19_16h09.02.693,natb3,2021.2.3,MacIntel,60.0024001,610ea2d0044e58da001f025d,611e07ecdcc96256ae8d5b80,611e72fb3bdb1cf49aef65c6,
,,,,space,0.3382,,0,105,105,97,1,B, , , , ,space,2500,2.5,,001,2021-08-19_16h09.02.693,natb3,2021.2.3,MacIntel,60.0024001,610ea2d0044e58da001f025d,611e07ecdcc96256ae8d5b80,611e72fb3bdb1cf49aef65c6,
,,,,space,0.3512,,0,106,106,309,1,H, , , , ,space,2500,2.5,,001,2021-08-19_16h09.02.693,natb3,2021.2.3,MacIntel,60.0024001,610ea2d0044e58da001f025d,611e07ecdcc96256ae8d5b80,611e72fb3bdb1cf49aef65c6,
,,,,space,0.4001,,0,107,107,232,1,O, , , , ,space,2500,2.5,,001,2021-08-19_16h09.02.693,natb3,2021.2.3,MacIntel,60.0024001,610ea2d0044e58da001f025d,611e07ecdcc96256ae8d5b80,611e72fb3bdb1cf49aef65c6,
,,,,space,0.3324,,0,108,108,308,1,G, , , , ,space,1500,1.5,,001,2021-08-19_16h09.02.693,natb3,2021.2.3,MacIntel,60.0024001,610ea2d0044e58da001f025d,611e07ecdcc96256ae8d5b80,611e72fb3bdb1cf49aef65c6,
,,,,space,0.3504,,0,109,109,61,1,C, , , , ,space,2000,2,,001,2021-08-19_16h09.02.693,natb3,2021.2.3,MacIntel,60.0024001,610ea2d0044e58da001f025d,611e07ecdcc96256ae8d5b80,611e72fb3bdb1cf49aef65c6,
,,,,space,0.3918,,0,110,110,114,1,E, , , , ,space,2000,2,,001,2021-08-19_16h09.02.693,natb3,2021.2.3,MacIntel,60.0024001,610ea2d0044e58da001f025d,611e07ecdcc96256ae8d5b80,611e72fb3bdb1cf49aef65c6,
,,,,space,0.3253,,0,111,111,211,1,X, , , , ,,2500,2.5,,001,2021-08-19_16h09.02.693,natb3,2021.2.3,MacIntel,60.0024001,610ea2d0044e58da001f025d,611e07ecdcc96256ae8d5b80,611e72fb3bdb1cf49aef65c6,
,,,,space,0.3412,,0,112,112,251,1,B, , , , ,space,1500,1.5,,001,2021-08-19_16h09.02.693,natb3,2021.2.3,MacIntel,60.0024001,610ea2d0044e58da001f025d,611e07ecdcc96256ae8d5b80,611e72fb3bdb1cf49aef65c6,
,,,,space,0.3173,,0,113,113,148,1,X, , , , ,,2000,2,,001,2021-08-19_16h09.02.693,natb3,2021.2.3,MacIntel,60.0024001,610ea2d0044e58da001f025d,611e07ecdcc96256ae8d5b80,611e72fb3bdb1cf49aef65c6,
,,,,,,,0,114,114,66,1,X, ,4,7, ,,2000,2,,001,2021-08-19_16h09.02.693,natb3,2021.2.3,MacIntel,60.0024001,610ea2d0044e58da001f025d,611e07ecdcc96256ae8d5b80,611e72fb3bdb1cf49aef65c6,
,,,,space,0.5056,,0,115,115,224,1,W, , , , ,space,1500,1.5,,001,2021-08-19_16h09.02.693,natb3,2021.2.3,MacIntel,60.0024001,610ea2d0044e58da001f025d,611e07ecdcc96256ae8d5b80,611e72fb3bdb1cf49aef65c6,
,,,,space,0.3226,,0,116,116,321,1,N, , , , ,space,2000,2,,001,2021-08-19_16h09.02.693,natb3,2021.2.3,MacIntel,60.0024001,610ea2d0044e58da001f025d,611e07ecdcc96256ae8d5b80,611e72fb3bdb1cf49aef65c6,
,,,,space,0.2885,,0,117,117,269,1,A, , , , ,space,2500,2.5,,001,2021-08-19_16h09.02.693,natb3,2021.2.3,MacIntel,60.0024001,610ea2d0044e58da001f025d,611e07ecdcc96256ae8d5b80,611e72fb3bdb1cf49aef65c6,
,,,,space,0.2976,,0,118,118,98,1,X, , , , ,,2500,2.5,,001,2021-08-19_16h09.02.693,natb3,2021.2.3,MacIntel,60.0024001,610ea2d0044e58da001f025d,611e07ecdcc96256ae8d5b80,611e72fb3bdb1cf49aef65c6,
,,,,space,0.5002,,0,119,119,75,1,U, , , , ,space,1500,1.5,,001,2021-08-19_16h09.02.693,natb3,2021.2.3,MacIntel,60.0024001,610ea2d0044e58da001f025d,611e07ecdcc96256ae8d5b80,611e72fb3bdb1cf49aef65c6,
,,,,space,0.4451,,0,120,120,230,1,U, , , , ,space,1500,1.5,,001,2021-08-19_16h09.02.693,natb3,2021.2.3,MacIntel,60.0024001,610ea2d0044e58da001f025d,611e07ecdcc96256ae8d5b80,611e72fb3bdb1cf49aef65c6,
,,,,space,0.5171,,0,121,121,115,1,R, , , , ,space,1500,1.5,,001,2021-08-19_16h09.02.693,natb3,2021.2.3,MacIntel,60.0024001,610ea2d0044e58da001f025d,611e07ecdcc96256ae8d5b80,611e72fb3bdb1cf49aef65c6,
,,,,space,0.406,,0,122,122,81,1,S, , , , ,space,2000,2,,001,2021-08-19_16h09.02.693,natb3,2021.2.3,MacIntel,60.0024001,610ea2d0044e58da001f025d,611e07ecdcc96256ae8d5b80,611e72fb3bdb1cf49aef65c6,
,,,,,,,0,123,123,179,1,X, ,9, ,2,,1500,1.5,,001,2021-08-19_16h09.02.693,natb3,2021.2.3,MacIntel,60.0024001,610ea2d0044e58da001f025d,611e07ecdcc96256ae8d5b80,611e72fb3bdb1cf49aef65c6,
,,,,space,0.414,,0,124,124,110,1,I, , , , ,space,1500,1.5,,001,2021-08-19_16h09.02.693,natb3,2021.2.3,MacIntel,60.0024001,610ea2d0044e58da001f025d,611e07ecdcc96256ae8d5b80,611e72fb3bdb1cf49aef65c6,
,,,,space,0.4401,,0,125,125,3,1,R, , , , ,space,2000,2,,001,2021-08-19_16h09.02.693,natb3,2021.2.3,MacIntel,60.0024001,610ea2d0044e58da001f025d,611e07ecdcc96256ae8d5b80,611e72fb3bdb1cf49aef65c6,
,,,,space,0.4005,,0,126,126,265,1,I, , , , ,space,2000,2,,001,2021-08-19_16h09.02.693,natb3,2021.2.3,MacIntel,60.0024001,610ea2d0044e58da001f025d,611e07ecdcc96256ae8d5b80,611e72fb3bdb1cf49aef65c6,
,,,,,,,0,127,127,107,1,X,9,3, ,2,,2000,2,,001,2021-08-19_16h09.02.693,natb3,2021.2.3,MacIntel,60.0024001,610ea2d0044e58da001f025d,611e07ecdcc96256ae8d5b80,611e72fb3bdb1cf49aef65c6,
,,,,,,,0,128,128,138,1,X,8,5, ,3,,2000,2,,001,2021-08-19_16h09.02.693,natb3,2021.2.3,MacIntel,60.0024001,610ea2d0044e58da001f025d,611e07ecdcc96256ae8d5b80,611e72fb3bdb1cf49aef65c6,
,,,,space,0.4052,,0,129,129,53,1,G, , , , ,space,2500,2.5,,001,2021-08-19_16h09.02.693,natb3,2021.2.3,MacIntel,60.0024001,610ea2d0044e58da001f025d,611e07ecdcc96256ae8d5b80,611e72fb3bdb1cf49aef65c6,
,,,,space,0.4326,,0,130,130,165,1,J, , , , ,space,2500,2.5,,001,2021-08-19_16h09.02.693,natb3,2021.2.3,MacIntel,60.0024001,610ea2d0044e58da001f025d,611e07ecdcc96256ae8d5b80,611e72fb3bdb1cf49aef65c6,
,,,,space,0.4175,,0,131,131,52,1,F, , , , ,space,1500,1.5,,001,2021-08-19_16h09.02.693,natb3,2021.2.3,MacIntel,60.0024001,610ea2d0044e58da001f025d,611e07ecdcc96256ae8d5b80,611e72fb3bdb1cf49aef65c6,
,,,,space,0.3764,,0,132,132,56,1,J, , , , ,space,1500,1.5,,001,2021-08-19_16h09.02.693,natb3,2021.2.3,MacIntel,60.0024001,610ea2d0044e58da001f025d,611e07ecdcc96256ae8d5b80,611e72fb3bdb1cf49aef65c6,
,,,,space,0.4144,,0,133,133,254,1,M, , , , ,space,1500,1.5,,001,2021-08-19_16h09.02.693,natb3,2021.2.3,MacIntel,60.0024001,610ea2d0044e58da001f025d,611e07ecdcc96256ae8d5b80,611e72fb3bdb1cf49aef65c6,
,,,,space,0.34,,0,134,134,199,1,J, , , , ,space,2500,2.5,,001,2021-08-19_16h09.02.693,natb3,2021.2.3,MacIntel,60.0024001,610ea2d0044e58da001f025d,611e07ecdcc96256ae8d5b80,611e72fb3bdb1cf49aef65c6,
,,,,space,0.375,,0,135,135,72,1,T, , , , ,space,1500,1.5,,001,2021-08-19_16h09.02.693,natb3,2021.2.3,MacIntel,60.0024001,610ea2d0044e58da001f025d,611e07ecdcc96256ae8d5b80,611e72fb3bdb1cf49aef65c6,
,,,,space,0.3919,,0,136,136,44,1,I, , , , ,space,2500,2.5,,001,2021-08-19_16h09.02.693,natb3,2021.2.3,MacIntel,60.0024001,610ea2d0044e58da001f025d,611e07ecdcc96256ae8d5b80,611e72fb3bdb1cf49aef65c6,
,,,,space,0.3904,,0,137,137,196,1,F, , , , ,space,1500,1.5,,001,2021-08-19_16h09.02.693,natb3,2021.2.3,MacIntel,60.0024001,610ea2d0044e58da001f025d,611e07ecdcc96256ae8d5b80,611e72fb3bdb1cf49aef65c6,
,,,,space,0.3673,,0,138,138,155,1,O, , , , ,space,1500,1.5,,001,2021-08-19_16h09.02.693,natb3,2021.2.3,MacIntel,60.0024001,610ea2d0044e58da001f025d,611e07ecdcc96256ae8d5b80,611e72fb3bdb1cf49aef65c6,
,,,,space,0.383,,0,139,139,134,1,J, , , , ,space,2000,2,,001,2021-08-19_16h09.02.693,natb3,2021.2.3,MacIntel,60.0024001,610ea2d0044e58da001f025d,611e07ecdcc96256ae8d5b80,611e72fb3bdb1cf49aef65c6,
,,,,,,,0,140,140,322,1,X, , ,1,6,,2000,2,,001,2021-08-19_16h09.02.693,natb3,2021.2.3,MacIntel,60.0024001,610ea2d0044e58da001f025d,611e07ecdcc96256ae8d5b80,611e72fb3bdb1cf49aef65c6,
,,,,space,0.3303,,0,141,141,202,1,L, , , , ,space,2500,2.5,,001,2021-08-19_16h09.02.693,natb3,2021.2.3,MacIntel,60.0024001,610ea2d0044e58da001f025d,611e07ecdcc96256ae8d5b80,611e72fb3bdb1cf49aef65c6,
,,,,,,,0,142,142,18,1,X, ,2,5,8,,2500,2.5,,001,2021-08-19_16h09.02.693,natb3,2021.2.3,MacIntel,60.0024001,610ea2d0044e58da001f025d,611e07ecdcc96256ae8d5b80,611e72fb3bdb1cf49aef65c6,
,,,,space,0.3311,,0,143,143,49,1,S, , , , ,space,1500,1.5,,001,2021-08-19_16h09.02.693,natb3,2021.2.3,MacIntel,60.0024001,610ea2d0044e58da001f025d,611e07ecdcc96256ae8d5b80,611e72fb3bdb1cf49aef65c6,
,,,,space,0.3113,,0,144,144,152,1,U, , , , ,space,2000,2,,001,2021-08-19_16h09.02.693,natb3,2021.2.3,MacIntel,60.0024001,610ea2d0044e58da001f025d,611e07ecdcc96256ae8d5b80,611e72fb3bdb1cf49aef65c6,
,,,,space,0.3614,,0,145,145,193,1,S, , , , ,space,2500,2.5,,001,2021-08-19_16h09.02.693,natb3,2021.2.3,MacIntel,60.0024001,610ea2d0044e58da001f025d,611e07ecdcc96256ae8d5b80,611e72fb3bdb1cf49aef65c6,
,,,,space,0.3582,,0,146,146,24,1,L, , , , ,space,2500,2.5,,001,2021-08-19_16h09.02.693,natb3,2021.2.3,MacIntel,60.0024001,610ea2d0044e58da001f025d,611e07ecdcc96256ae8d5b80,611e72fb3bdb1cf49aef65c6,
,,,,space,0.3432,,0,147,147,160,1,D, , , , ,space,1500,1.5,,001,2021-08-19_16h09.02.693,natb3,2021.2.3,MacIntel,60.0024001,610ea2d0044e58da001f025d,611e07ecdcc96256ae8d5b80,611e72fb3bdb1cf49aef65c6,
,,,,,,,0,148,148,248,1,X, ,1,5, ,,1500,1.5,,001,2021-08-19_16h09.02.693,natb3,2021.2.3,MacIntel,60.0024001,610ea2d0044e58da001f025d,611e07ecdcc96256ae8d5b80,611e72fb3bdb1cf49aef65c6,
,,,,space,0.3724,,0,149,149,324,1,Q, , , , ,space,2000,2,,001,2021-08-19_16h09.02.693,natb3,2021.2.3,MacIntel,60.0024001,610ea2d0044e58da001f025d,611e07ecdcc96256ae8d5b80,611e72fb3bdb1cf49aef65c6,
,,,,space,0.3263,,0,150,150,20,1,H, , , , ,space,1500,1.5,,001,2021-08-19_16h09.02.693,natb3,2021.2.3,MacIntel,60.0024001,610ea2d0044e58da001f025d,611e07ecdcc96256ae8d5b80,611e72fb3bdb1cf49aef65c6,
,,,,space,0.2956,,0,151,151,68,1,W, , , , ,space,2500,2.5,,001,2021-08-19_16h09.02.693,natb3,2021.2.3,MacIntel,60.0024001,610ea2d0044e58da001f025d,611e07ecdcc96256ae8d5b80,611e72fb3bdb1cf49aef65c6,
,,,,space,0.3653,,0,152,152,288,1,M, , , , ,space,1500,1.5,,001,2021-08-19_16h09.02.693,natb3,2021.2.3,MacIntel,60.0024001,610ea2d0044e58da001f025d,611e07ecdcc96256ae8d5b80,611e72fb3bdb1cf49aef65c6,
,,,,space,0.3901,,0,153,153,16,1,D, , , , ,space,1500,1.5,,001,2021-08-19_16h09.02.693,natb3,2021.2.3,MacIntel,60.0024001,610ea2d0044e58da001f025d,611e07ecdcc96256ae8d5b80,611e72fb3bdb1cf49aef65c6,
,,,,space,0.4339,,0,154,154,113,1,W, , , , ,space,2500,2.5,,001,2021-08-19_16h09.02.693,natb3,2021.2.3,MacIntel,60.0024001,610ea2d0044e58da001f025d,611e07ecdcc96256ae8d5b80,611e72fb3bdb1cf49aef65c6,
,,,,space,0.2686,,0,155,155,108,1,Y, , , , ,space,2500,2.5,,001,2021-08-19_16h09.02.693,natb3,2021.2.3,MacIntel,60.0024001,610ea2d0044e58da001f025d,611e07ecdcc96256ae8d5b80,611e72fb3bdb1cf49aef65c6,
,,,,space,0.2809,,0,156,156,302,1,X, , , , ,,2000,2,,001,2021-08-19_16h09.02.693,natb3,2021.2.3,MacIntel,60.0024001,610ea2d0044e58da001f025d,611e07ecdcc96256ae8d5b80,611e72fb3bdb1cf49aef65c6,
,,,,space,0.424,,0,157,157,19,1,G, , , , ,space,1500,1.5,,001,2021-08-19_16h09.02.693,natb3,2021.2.3,MacIntel,60.0024001,610ea2d0044e58da001f025d,611e07ecdcc96256ae8d5b80,611e72fb3bdb1cf49aef65c6,
,,,,,,,0,158,158,263,1,X,4, ,6, ,,1500,1.5,,001,2021-08-19_16h09.02.693,natb3,2021.2.3,MacIntel,60.0024001,610ea2d0044e58da001f025d,611e07ecdcc96256ae8d5b80,611e72fb3bdb1cf49aef65c6,
,,,,space,0.3234,,0,159,159,228,1,Y, , , , ,space,2000,2,,001,2021-08-19_16h09.02.693,natb3,2021.2.3,MacIntel,60.0024001,610ea2d0044e58da001f025d,611e07ecdcc96256ae8d5b80,611e72fb3bdb1cf49aef65c6,
,,,,,,,0,160,160,129,1,X,2,3,5, ,,1500,1.5,,001,2021-08-19_16h09.02.693,natb3,2021.2.3,MacIntel,60.0024001,610ea2d0044e58da001f025d,611e07ecdcc96256ae8d5b80,611e72fb3bdb1cf49aef65c6,
,,,,space,0.3212,,0,161,161,164,1,H, , , , ,space,2500,2.5,,001,2021-08-19_16h09.02.693,natb3,2021.2.3,MacIntel,60.0024001,610ea2d0044e58da001f025d,611e07ecdcc96256ae8d5b80,611e72fb3bdb1cf49aef65c6,
,,,,,,,0,162,162,118,1,X, , , , ,,2000,2,,001,2021-08-19_16h09.02.693,natb3,2021.2.3,MacIntel,60.0024001,610ea2d0044e58da001f025d,611e07ecdcc96256ae8d5b80,611e72fb3bdb1cf49aef65c6,
,,,,space,0.4082,,0,163,163,258,1,E, , , , ,space,1500,1.5,,001,2021-08-19_16h09.02.693,natb3,2021.2.3,MacIntel,60.0024001,610ea2d0044e58da001f025d,611e07ecdcc96256ae8d5b80,611e72fb3bdb1cf49aef65c6,
,,,,,,,0,164,164,207,1,X,9, ,2, ,,2500,2.5,,001,2021-08-19_16h09.02.693,natb3,2021.2.3,MacIntel,60.0024001,610ea2d0044e58da001f025d,611e07ecdcc96256ae8d5b80,611e72fb3bdb1cf49aef65c6,
,,,,space,0.3985,,0,165,165,247,1,Z, , , , ,space,1500,1.5,,001,2021-08-19_16h09.02.693,natb3,2021.2.3,MacIntel,60.0024001,610ea2d0044e58da001f025d,611e07ecdcc96256ae8d5b80,611e72fb3bdb1cf49aef65c6,
,,,,space,0.4254,,0,166,166,183,1,R, , , , ,space,1500,1.5,,001,2021-08-19_16h09.02.693,natb3,2021.2.3,MacIntel,60.0024001,610ea2d0044e58da001f025d,611e07ecdcc96256ae8d5b80,611e72fb3bdb1cf49aef65c6,
,,,,,,space,0,167,167,145,1,X, , , , ,,2000,2,,001,2021-08-19_16h09.02.693,natb3,2021.2.3,MacIntel,60.0024001,610ea2d0044e58da001f025d,611e07ecdcc96256ae8d5b80,611e72fb3bdb1cf49aef65c6,34.8789
,,,,,,,0,168,168,295,1,X,8,7,5, ,,2500,2.5,,001,2021-08-19_16h09.02.693,natb3,2021.2.3,MacIntel,60.0024001,610ea2d0044e58da001f025d,611e07ecdcc96256ae8d5b80,611e72fb3bdb1cf49aef65c6,
,,,,space,0.4885,,0,169,169,198,1,H, , , , ,space,2500,2.5,,001,2021-08-19_16h09.02.693,natb3,2021.2.3,MacIntel,60.0024001,610ea2d0044e58da001f025d,611e07ecdcc96256ae8d5b80,611e72fb3bdb1cf49aef65c6,
,,,,,,,0,170,170,23,1,X,1, ,5, ,,2000,2,,001,2021-08-19_16h09.02.693,natb3,2021.2.3,MacIntel,60.0024001,610ea2d0044e58da001f025d,611e07ecdcc96256ae8d5b80,611e72fb3bdb1cf49aef65c6,
,,,,,,,0,171,171,122,1,X,1, , ,8,,1500,1.5,,001,2021-08-19_16h09.02.693,natb3,2021.2.3,MacIntel,60.0024001,610ea2d0044e58da001f025d,611e07ecdcc96256ae8d5b80,611e72fb3bdb1cf49aef65c6,
,,,,space,0.416,,0,172,172,111,1,O, , , , ,space,2000,2,,001,2021-08-19_16h09.02.693,natb3,2021.2.3,MacIntel,60.0024001,610ea2d0044e58da001f025d,611e07ecdcc96256ae8d5b80,611e72fb3bdb1cf49aef65c6,
,,,,space,0.408,,0,173,173,275,1,G, , , , ,space,1500,1.5,,001,2021-08-19_16h09.02.693,natb3,2021.2.3,MacIntel,60.0024001,610ea2d0044e58da001f025d,611e07ecdcc96256ae8d5b80,611e72fb3bdb1cf49aef65c6,
,,,,,,,0,174,174,82,1,X,4,6,1,7,,2000,2,,001,2021-08-19_16h09.02.693,natb3,2021.2.3,MacIntel,60.0024001,610ea2d0044e58da001f025d,611e07ecdcc96256ae8d5b80,611e72fb3bdb1cf49aef65c6,
,,,,space,0.3309,,0,175,175,312,1,K, , , , ,space,2000,2,,001,2021-08-19_16h09.02.693,natb3,2021.2.3,MacIntel,60.0024001,610ea2d0044e58da001f025d,611e07ecdcc96256ae8d5b80,611e72fb3bdb1cf49aef65c6,
,,,,,,,0,176,176,287,1,X, ,2, ,9,,2000,2,,001,2021-08-19_16h09.02.693,natb3,2021.2.3,MacIntel,60.0024001,610ea2d0044e58da001f025d,611e07ecdcc96256ae8d5b80,611e72fb3bdb1cf49aef65c6,
,,,,space,0.432,,0,177,177,274,1,F, , , , ,space,2000,2,,001,2021-08-19_16h09.02.693,natb3,2021.2.3,MacIntel,60.0024001,610ea2d0044e58da001f025d,611e07ecdcc96256ae8d5b80,611e72fb3bdb1cf49aef65c6,
,,,,space,0.3845,,0,178,178,13,1,A, , , , ,space,2000,2,,001,2021-08-19_16h09.02.693,natb3,2021.2.3,MacIntel,60.0024001,610ea2d0044e58da001f025d,611e07ecdcc96256ae8d5b80,611e72fb3bdb1cf49aef65c6,
,,,,space,0.3836,,0,179,179,10,1,O, , , , ,space,2000,2,,001,2021-08-19_16h09.02.693,natb3,2021.2.3,MacIntel,60.0024001,610ea2d0044e58da001f025d,611e07ecdcc96256ae8d5b80,611e72fb3bdb1cf49aef65c6,
,,,,,,,0,180,180,102,1,X, ,6, , ,,1500,1.5,,001,2021-08-19_16h09.02.693,natb3,2021.2.3,MacIntel,60.0024001,610ea2d0044e58da001f025d,611e07ecdcc96256ae8d5b80,611e72fb3bdb1cf49aef65c6,
,,,,space,0.3495,,0,181,181,296,1,Y, , , , ,space,2500,2.5,,001,2021-08-19_16h09.02.693,natb3,2021.2.3,MacIntel,60.0024001,610ea2d0044e58da001f025d,611e07ecdcc96256ae8d5b80,611e72fb3bdb1cf49aef65c6,
,,,,,,,0,182,182,158,1,X, , , , ,,1500,1.5,,001,2021-08-19_16h09.02.693,natb3,2021.2.3,MacIntel,60.0024001,610ea2d0044e58da001f025d,611e07ecdcc96256ae8d5b80,611e72fb3bdb1cf49aef65c6,
,,,,space,0.4031,,0,183,183,220,1,U, , , , ,space,2500,2.5,,001,2021-08-19_16h09.02.693,natb3,2021.2.3,MacIntel,60.0024001,610ea2d0044e58da001f025d,611e07ecdcc96256ae8d5b80,611e72fb3bdb1cf49aef65c6,
,,,,,,,0,184,184,277,1,X,8,5, ,2,,2000,2,,001,2021-08-19_16h09.02.693,natb3,2021.2.3,MacIntel,60.0024001,610ea2d0044e58da001f025d,611e07ecdcc96256ae8d5b80,611e72fb3bdb1cf49aef65c6,
,,,,space,0.3854,,0,185,185,85,1,F, , , , ,space,2500,2.5,,001,2021-08-19_16h09.02.693,natb3,2021.2.3,MacIntel,60.0024001,610ea2d0044e58da001f025d,611e07ecdcc96256ae8d5b80,611e72fb3bdb1cf49aef65c6,
,,,,space,0.4172,,0,186,186,317,1,C, , , , ,space,2000,2,,001,2021-08-19_16h09.02.693,natb3,2021.2.3,MacIntel,60.0024001,610ea2d0044e58da001f025d,611e07ecdcc96256ae8d5b80,611e72fb3bdb1cf49aef65c6,
,,,,space,0.4168,,0,187,187,5,1,T, , , , ,space,2000,2,,001,2021-08-19_16h09.02.693,natb3,2021.2.3,MacIntel,60.0024001,610ea2d0044e58da001f025d,611e07ecdcc96256ae8d5b80,611e72fb3bdb1cf49aef65c6,
,,,,space,0.3023,,0,188,188,313,1,X, , , , ,,2500,2.5,,001,2021-08-19_16h09.02.693,natb3,2021.2.3,MacIntel,60.0024001,610ea2d0044e58da001f025d,611e07ecdcc96256ae8d5b80,611e72fb3bdb1cf49aef65c6,
,,,,space,0.4167,,0,189,189,244,1,J, , , , ,space,1500,1.5,,001,2021-08-19_16h09.02.693,natb3,2021.2.3,MacIntel,60.0024001,610ea2d0044e58da001f025d,611e07ecdcc96256ae8d5b80,611e72fb3bdb1cf49aef65c6,
,,,,space,0.4171,,0,190,190,225,1,E, , , , ,space,2000,2,,001,2021-08-19_16h09.02.693,natb3,2021.2.3,MacIntel,60.0024001,610ea2d0044e58da001f025d,611e07ecdcc96256ae8d5b80,611e72fb3bdb1cf49aef65c6,
,,,,,,,0,191,191,7,1,X, , , , ,,1500,1.5,,001,2021-08-19_16h09.02.693,natb3,2021.2.3,MacIntel,60.0024001,610ea2d0044e58da001f025d,611e07ecdcc96256ae8d5b80,611e72fb3bdb1cf49aef65c6,
,,,,space,0.4166,,0,192,192,104,1,E, , , , ,space,2000,2,,001,2021-08-19_16h09.02.693,natb3,2021.2.3,MacIntel,60.0024001,610ea2d0044e58da001f025d,611e07ecdcc96256ae8d5b80,611e72fb3bdb1cf49aef65c6,
,,,,space,0.4338,,0,193,193,106,1,T, , , , ,space,1500,1.5,,001,2021-08-19_16h09.02.693,natb3,2021.2.3,MacIntel,60.0024001,610ea2d0044e58da001f025d,611e07ecdcc96256ae8d5b80,611e72fb3bdb1cf49aef65c6,
,,,,space,0.3935,,0,194,194,117,1,T, , , , ,space,2500,2.5,,001,2021-08-19_16h09.02.693,natb3,2021.2.3,MacIntel,60.0024001,610ea2d0044e58da001f025d,611e07ecdcc96256ae8d5b80,611e72fb3bdb1cf49aef65c6,
,,,,space,0.3885,,0,195,195,278,1,J, , , , ,space,2000,2,,001,2021-08-19_16h09.02.693,natb3,2021.2.3,MacIntel,60.0024001,610ea2d0044e58da001f025d,611e07ecdcc96256ae8d5b80,611e72fb3bdb1cf49aef65c6,
,,,,space,0.3836,,0,196,196,40,1,T, , , , ,space,1500,1.5,,001,2021-08-19_16h09.02.693,natb3,2021.2.3,MacIntel,60.0024001,610ea2d0044e58da001f025d,611e07ecdcc96256ae8d5b80,611e72fb3bdb1cf49aef65c6,
,,,,space,0.3919,,0,197,197,57,1,K, , , , ,space,2500,2.5,,001,2021-08-19_16h09.02.693,natb3,2021.2.3,MacIntel,60.0024001,610ea2d0044e58da001f025d,611e07ecdcc96256ae8d5b80,611e72fb3bdb1cf49aef65c6,
,,,,space,0.3734,,0,198,198,69,1,X, , , , ,,1500,1.5,,001,2021-08-19_16h09.02.693,natb3,2021.2.3,MacIntel,60.0024001,610ea2d0044e58da001f025d,611e07ecdcc96256ae8d5b80,611e72fb3bdb1cf49aef65c6,
,,,,space,0.4673,,0,199,199,70,1,E, , , , ,space,2500,2.5,,001,2021-08-19_16h09.02.693,natb3,2021.2.3,MacIntel,60.0024001,610ea2d0044e58da001f025d,611e07ecdcc96256ae8d5b80,611e72fb3bdb1cf49aef65c6,
,,,,space,0.4835,,0,200,200,112,1,Q, , , , ,space,2500,2.5,,001,2021-08-19_16h09.02.693,natb3,2021.2.3,MacIntel,60.0024001,610ea2d0044e58da001f025d,611e07ecdcc96256ae8d5b80,611e72fb3bdb1cf49aef65c6,
,,,,space,0.483,,0,201,201,1,1,W, , , , ,space,2000,2,,001,2021-08-19_16h09.02.693,natb3,2021.2.3,MacIntel,60.0024001,610ea2d0044e58da001f025d,611e07ecdcc96256ae8d5b80,611e72fb3bdb1cf49aef65c6,
,,,,,,,0,202,202,252,1,X,3, ,6,9,,2000,2,,001,2021-08-19_16h09.02.693,natb3,2021.2.3,MacIntel,60.0024001,610ea2d0044e58da001f025d,611e07ecdcc96256ae8d5b80,611e72fb3bdb1cf49aef65c6,
,,,,space,0.5022,,0,203,203,226,1,R, , , , ,space,2000,2,,001,2021-08-19_16h09.02.693,natb3,2021.2.3,MacIntel,60.0024001,610ea2d0044e58da001f025d,611e07ecdcc96256ae8d5b80,611e72fb3bdb1cf49aef65c6,
,,,,space,0.367,,0,204,204,249,1,C, , , , ,space,2000,2,,001,2021-08-19_16h09.02.693,natb3,2021.2.3,MacIntel,60.0024001,610ea2d0044e58da001f025d,611e07ecdcc96256ae8d5b80,611e72fb3bdb1cf49aef65c6,
,,,,space,0.2936,,0,205,205,38,1,R, , , , ,space,2500,2.5,,001,2021-08-19_16h09.02.693,natb3,2021.2.3,MacIntel,60.0024001,610ea2d0044e58da001f025d,611e07ecdcc96256ae8d5b80,611e72fb3bdb1cf49aef65c6,
,,,,space,0.3332,,0,206,206,209,1,N, , , , ,space,2000,2,,001,2021-08-19_16h09.02.693,natb3,2021.2.3,MacIntel,60.0024001,610ea2d0044e58da001f025d,611e07ecdcc96256ae8d5b80,611e72fb3bdb1cf49aef65c6,
,,,,space,0.3668,,0,207,207,326,1,W, , , , ,space,2000,2,,001,2021-08-19_16h09.02.693,natb3,2021.2.3,MacIntel,60.0024001,610ea2d0044e58da001f025d,611e07ecdcc96256ae8d5b80,611e72fb3bdb1cf49aef65c6,
,,,,space,0.4522,,0,208,208,270,1,S, , , , ,space,1500,1.5,,001,2021-08-19_16h09.02.693,natb3,2021.2.3,MacIntel,60.0024001,610ea2d0044e58da001f025d,611e07ecdcc96256ae8d5b80,611e72fb3bdb1cf49aef65c6,
,,,,space,0.4156,,0,209,209,132,1,H, , , , ,space,2500,2.5,,001,2021-08-19_16h09.02.693,natb3,2021.2.3,MacIntel,60.0024001,610ea2d0044e58da001f025d,611e07ecdcc96256ae8d5b80,611e72fb3bdb1cf49aef65c6,
,,,,space,0.4718,,0,210,210,50,1,D, , , , ,space,1500,1.5,,001,2021-08-19_16h09.02.693,natb3,2021.2.3,MacIntel,60.0024001,610ea2d0044e58da001f025d,611e07ecdcc96256ae8d5b80,611e72fb3bdb1cf49aef65c6,
,,,,,,,0,211,211,15,1,X, , , , ,,1500,1.5,,001,2021-08-19_16h09.02.693,natb3,2021.2.3,MacIntel,60.0024001,610ea2d0044e58da001f025d,611e07ecdcc96256ae8d5b80,611e72fb3bdb1cf49aef65c6,
,,,,space,0.4177,,0,212,212,71,1,R, , , , ,space,2500,2.5,,001,2021-08-19_16h09.02.693,natb3,2021.2.3,MacIntel,60.0024001,610ea2d0044e58da001f025d,611e07ecdcc96256ae8d5b80,611e72fb3bdb1cf49aef65c6,
,,,,,,,0,213,213,195,1,X, , , , ,,1500,1.5,,001,2021-08-19_16h09.02.693,natb3,2021.2.3,MacIntel,60.0024001,610ea2d0044e58da001f025d,611e07ecdcc96256ae8d5b80,611e72fb3bdb1cf49aef65c6,
,,,,space,0.3407,,0,214,214,260,1,R, , , , ,space,2000,2,,001,2021-08-19_16h09.02.693,natb3,2021.2.3,MacIntel,60.0024001,610ea2d0044e58da001f025d,611e07ecdcc96256ae8d5b80,611e72fb3bdb1cf49aef65c6,
,,,,space,0.3599,,0,215,215,264,1,U, , , , ,space,2000,2,,001,2021-08-19_16h09.02.693,natb3,2021.2.3,MacIntel,60.0024001,610ea2d0044e58da001f025d,611e07ecdcc96256ae8d5b80,611e72fb3bdb1cf49aef65c6,
,,,,space,0.3716,,0,216,216,45,1,O, , , , ,space,2000,2,,001,2021-08-19_16h09.02.693,natb3,2021.2.3,MacIntel,60.0024001,610ea2d0044e58da001f025d,611e07ecdcc96256ae8d5b80,611e72fb3bdb1cf49aef65c6,
,,,,space,0.4162,,0,217,217,320,1,B, , , , ,space,1500,1.5,,001,2021-08-19_16h09.02.693,natb3,2021.2.3,MacIntel,60.0024001,610ea2d0044e58da001f025d,611e07ecdcc96256ae8d5b80,611e72fb3bdb1cf49aef65c6,
,,,,space,0.3254,,0,218,218,271,1,X, , , , ,,2500,2.5,,001,2021-08-19_16h09.02.693,natb3,2021.2.3,MacIntel,60.0024001,610ea2d0044e58da001f025d,611e07ecdcc96256ae8d5b80,611e72fb3bdb1cf49aef65c6,
,,,,,,,0,219,219,182,1,X, , , , ,,1500,1.5,,001,2021-08-19_16h09.02.693,natb3,2021.2.3,MacIntel,60.0024001,610ea2d0044e58da001f025d,611e07ecdcc96256ae8d5b80,611e72fb3bdb1cf49aef65c6,
,,,,space,0.3334,,0,220,220,14,1,S, , , , ,space,2500,2.5,,001,2021-08-19_16h09.02.693,natb3,2021.2.3,MacIntel,60.0024001,610ea2d0044e58da001f025d,611e07ecdcc96256ae8d5b80,611e72fb3bdb1cf49aef65c6,
,,,,space,0.4017,,0,221,221,186,1,U, , , , ,space,2500,2.5,,001,2021-08-19_16h09.02.693,natb3,2021.2.3,MacIntel,60.0024001,610ea2d0044e58da001f025d,611e07ecdcc96256ae8d5b80,611e72fb3bdb1cf49aef65c6,
,,,,,,,0,222,222,239,1,X, , , , ,,2000,2,,001,2021-08-19_16h09.02.693,natb3,2021.2.3,MacIntel,60.0024001,610ea2d0044e58da001f025d,611e07ecdcc96256ae8d5b80,611e72fb3bdb1cf49aef65c6,
,,,,space,0.3671,,0,223,223,237,1,S, , , , ,space,1500,1.5,,001,2021-08-19_16h09.02.693,natb3,2021.2.3,MacIntel,60.0024001,610ea2d0044e58da001f025d,611e07ecdcc96256ae8d5b80,611e72fb3bdb1cf49aef65c6,
,,,,space,0.3855,,0,224,224,261,1,T, , , , ,space,2000,2,,001,2021-08-19_16h09.02.693,natb3,2021.2.3,MacIntel,60.0024001,610ea2d0044e58da001f025d,611e07ecdcc96256ae8d5b80,611e72fb3bdb1cf49aef65c6,
,,,,space,0.4624,,0,225,225,67,1,Q, , , , ,space,2000,2,,001,2021-08-19_16h09.02.693,natb3,2021.2.3,MacIntel,60.0024001,610ea2d0044e58da001f025d,611e07ecdcc96256ae8d5b80,611e72fb3bdb1cf49aef65c6,
,,,,space,0.4271,,0,226,226,289,1,Q, , , , ,space,2000,2,,001,2021-08-19_16h09.02.693,natb3,2021.2.3,MacIntel,60.0024001,610ea2d0044e58da001f025d,611e07ecdcc96256ae8d5b80,611e72fb3bdb1cf49aef65c6,
,,,,space,0.3915,,0,227,227,90,1,K, , , , ,space,2000,2,,001,2021-08-19_16h09.02.693,natb3,2021.2.3,MacIntel,60.0024001,610ea2d0044e58da001f025d,611e07ecdcc96256ae8d5b80,611e72fb3bdb1cf49aef65c6,
,,,,space,0.4079,,0,228,228,208,1,B, , , , ,space,1500,1.5,,001,2021-08-19_16h09.02.693,natb3,2021.2.3,MacIntel,60.0024001,610ea2d0044e58da001f025d,611e07ecdcc96256ae8d5b80,611e72fb3bdb1cf49aef65c6,
,,,,space,0.375,,0,229,229,6,1,Y, , , , ,space,2500,2.5,,001,2021-08-19_16h09.02.693,natb3,2021.2.3,MacIntel,60.0024001,610ea2d0044e58da001f025d,611e07ecdcc96256ae8d5b80,611e72fb3bdb1cf49aef65c6,
,,,,space,0.3601,,0,230,230,194,1,D, , , , ,space,2000,2,,001,2021-08-19_16h09.02.693,natb3,2021.2.3,MacIntel,60.0024001,610ea2d0044e58da001f025d,611e07ecdcc96256ae8d5b80,611e72fb3bdb1cf49aef65c6,
,,,,,,,0,231,231,200,1,X,7, ,5,3,,1500,1.5,,001,2021-08-19_16h09.02.693,natb3,2021.2.3,MacIntel,60.0024001,610ea2d0044e58da001f025d,611e07ecdcc96256ae8d5b80,611e72fb3bdb1cf49aef65c6,
,,,,,,,0,232,232,175,1,X,7, ,4,2,,1500,1.5,,001,2021-08-19_16h09.02.693,natb3,2021.2.3,MacIntel,60.0024001,610ea2d0044e58da001f025d,611e07ecdcc96256ae8d5b80,611e72fb3bdb1cf49aef65c6,
,,,,space,0.3806,,0,233,233,212,1,Q, , , , ,space,2500,2.5,,001,2021-08-19_16h09.02.693,natb3,2021.2.3,MacIntel,60.0024001,610ea2d0044e58da001f025d,611e07ecdcc96256ae8d5b80,611e72fb3bdb1cf49aef65c6,
,,,,space,0.4591,,0,234,234,298,1,I, , , , ,space,2000,2,,001,2021-08-19_16h09.02.693,natb3,2021.2.3,MacIntel,60.0024001,610ea2d0044e58da001f025d,611e07ecdcc96256ae8d5b80,611e72fb3bdb1cf49aef65c6,
,,,,space,0.4756,,0,235,235,58,1,L, , , , ,space,2000,2,,001,2021-08-19_16h09.02.693,natb3,2021.2.3,MacIntel,60.0024001,610ea2d0044e58da001f025d,611e07ecdcc96256ae8d5b80,611e72fb3bdb1cf49aef65c6,
,,,,space,0.4088,,0,236,236,42,1,U, , , , ,space,1500,1.5,,001,2021-08-19_16h09.02.693,natb3,2021.2.3,MacIntel,60.0024001,610ea2d0044e58da001f025d,611e07ecdcc96256ae8d5b80,611e72fb3bdb1cf49aef65c6,
,,,,space,0.4166,,0,237,237,36,1,W, , , , ,space,2000,2,,001,2021-08-19_16h09.02.693,natb3,2021.2.3,MacIntel,60.0024001,610ea2d0044e58da001f025d,611e07ecdcc96256ae8d5b80,611e72fb3bdb1cf49aef65c6,
,,,,,,,0,238,238,153,1,X,4,7, ,6,,2000,2,,001,2021-08-19_16h09.02.693,natb3,2021.2.3,MacIntel,60.0024001,610ea2d0044e58da001f025d,611e07ecdcc96256ae8d5b80,611e72fb3bdb1cf49aef65c6,
,,,,,,,0,239,239,187,1,X, ,3,7,4,,1500,1.5,,001,2021-08-19_16h09.02.693,natb3,2021.2.3,MacIntel,60.0024001,610ea2d0044e58da001f025d,611e07ecdcc96256ae8d5b80,611e72fb3bdb1cf49aef65c6,
,,,,space,0.405,,0,240,240,151,1,Y, , , , ,space,2500,2.5,,001,2021-08-19_16h09.02.693,natb3,2021.2.3,MacIntel,60.0024001,610ea2d0044e58da001f025d,611e07ecdcc96256ae8d5b80,611e72fb3bdb1cf49aef65c6,
,,,,space,0.4109,,0,241,241,294,1,T, , , , ,space,2000,2,,001,2021-08-19_16h09.02.693,natb3,2021.2.3,MacIntel,60.0024001,610ea2d0044e58da001f025d,611e07ecdcc96256ae8d5b80,611e72fb3bdb1cf49aef65c6,
,,,,space,0.4085,,0,242,242,189,1,O, , , , ,space,1500,1.5,,001,2021-08-19_16h09.02.693,natb3,2021.2.3,MacIntel,60.0024001,610ea2d0044e58da001f025d,611e07ecdcc96256ae8d5b80,611e72fb3bdb1cf49aef65c6,
,,,,space,0.325,,0,243,243,282,1,X, , , , ,,2500,2.5,,001,2021-08-19_16h09.02.693,natb3,2021.2.3,MacIntel,60.0024001,610ea2d0044e58da001f025d,611e07ecdcc96256ae8d5b80,611e72fb3bdb1cf49aef65c6,
,,,,space,0.4107,,0,244,244,280,1,L, , , , ,space,1500,1.5,,001,2021-08-19_16h09.02.693,natb3,2021.2.3,MacIntel,60.0024001,610ea2d0044e58da001f025d,611e07ecdcc96256ae8d5b80,611e72fb3bdb1cf49aef65c6,
,,,,space,0.4265,,0,245,245,221,1,I, , , , ,space,2500,2.5,,001,2021-08-19_16h09.02.693,natb3,2021.2.3,MacIntel,60.0024001,610ea2d0044e58da001f025d,611e07ecdcc96256ae8d5b80,611e72fb3bdb1cf49aef65c6,
,,,,,,,0,246,246,78,1,X, , , , ,,2000,2,,001,2021-08-19_16h09.02.693,natb3,2021.2.3,MacIntel,60.0024001,610ea2d0044e58da001f025d,611e07ecdcc96256ae8d5b80,611e72fb3bdb1cf49aef65c6,
,,,,space,0.3277,,0,247,247,166,1,X, , , , ,,2000,2,,001,2021-08-19_16h09.02.693,natb3,2021.2.3,MacIntel,60.0024001,610ea2d0044e58da001f025d,611e07ecdcc96256ae8d5b80,611e72fb3bdb1cf49aef65c6,
,,,,,,,0,248,248,54,1,X, , , , ,,2000,2,,001,2021-08-19_16h09.02.693,natb3,2021.2.3,MacIntel,60.0024001,610ea2d0044e58da001f025d,611e07ecdcc96256ae8d5b80,611e72fb3bdb1cf49aef65c6,
,,,,,,,0,249,249,168,1,X, , , , ,,2500,2.5,,001,2021-08-19_16h09.02.693,natb3,2021.2.3,MacIntel,60.0024001,610ea2d0044e58da001f025d,611e07ecdcc96256ae8d5b80,611e72fb3bdb1cf49aef65c6,
,,,,space,0.5509,,0,250,250,201,1,K, , , , ,space,1500,1.5,,001,2021-08-19_16h09.02.693,natb3,2021.2.3,MacIntel,60.0024001,610ea2d0044e58da001f025d,611e07ecdcc96256ae8d5b80,611e72fb3bdb1cf49aef65c6,
,,,,space,0.4174,,0,251,251,222,1,O, , , , ,space,2000,2,,001,2021-08-19_16h09.02.693,natb3,2021.2.3,MacIntel,60.0024001,610ea2d0044e58da001f025d,611e07ecdcc96256ae8d5b80,611e72fb3bdb1cf49aef65c6,
,,,,space,0.4234,,0,252,252,88,1,J, , , , ,space,2500,2.5,,001,2021-08-19_16h09.02.693,natb3,2021.2.3,MacIntel,60.0024001,610ea2d0044e58da001f025d,611e07ecdcc96256ae8d5b80,611e72fb3bdb1cf49aef65c6,
,,,,space,0.4308,,0,253,253,0,1,Q, , , , ,space,1500,1.5,,001,2021-08-19_16h09.02.693,natb3,2021.2.3,MacIntel,60.0024001,610ea2d0044e58da001f025d,611e07ecdcc96256ae8d5b80,611e72fb3bdb1cf49aef65c6,
,,,,,,,0,254,254,171,1,X, , , , ,,1500,1.5,,001,2021-08-19_16h09.02.693,natb3,2021.2.3,MacIntel,60.0024001,610ea2d0044e58da001f025d,611e07ecdcc96256ae8d5b80,611e72fb3bdb1cf49aef65c6,
,,,,,,,0,255,255,51,1,X,7,5,8, ,,1500,1.5,,001,2021-08-19_16h09.02.693,natb3,2021.2.3,MacIntel,60.0024001,610ea2d0044e58da001f025d,611e07ecdcc96256ae8d5b80,611e72fb3bdb1cf49aef65c6,
,,,,,,,0,256,256,84,1,X, , , , ,,2000,2,,001,2021-08-19_16h09.02.693,natb3,2021.2.3,MacIntel,60.0024001,610ea2d0044e58da001f025d,611e07ecdcc96256ae8d5b80,611e72fb3bdb1cf49aef65c6,
,,,,space,0.3972,,0,257,257,178,1,Q, , , , ,space,1500,1.5,,001,2021-08-19_16h09.02.693,natb3,2021.2.3,MacIntel,60.0024001,610ea2d0044e58da001f025d,611e07ecdcc96256ae8d5b80,611e72fb3bdb1cf49aef65c6,
,,,,space,0.4592,,0,258,258,286,1,N, , , , ,space,1500,1.5,,001,2021-08-19_16h09.02.693,natb3,2021.2.3,MacIntel,60.0024001,610ea2d0044e58da001f025d,611e07ecdcc96256ae8d5b80,611e72fb3bdb1cf49aef65c6,
,,,,space,0.35,,0,259,259,130,1,F, , , , ,space,2000,2,,001,2021-08-19_16h09.02.693,natb3,2021.2.3,MacIntel,60.0024001,610ea2d0044e58da001f025d,611e07ecdcc96256ae8d5b80,611e72fb3bdb1cf49aef65c6,
,,,,,,,0,260,260,305,1,X, , , , ,,1500,1.5,,001,2021-08-19_16h09.02.693,natb3,2021.2.3,MacIntel,60.0024001,610ea2d0044e58da001f025d,611e07ecdcc96256ae8d5b80,611e72fb3bdb1cf49aef65c6,
,,,,space,0.7361,,0,261,261,136,1,Z, , , , ,space,2500,2.5,,001,2021-08-19_16h09.02.693,natb3,2021.2.3,MacIntel,60.0024001,610ea2d0044e58da001f025d,611e07ecdcc96256ae8d5b80,611e72fb3bdb1cf49aef65c6,
,,,,space,0.5344,,0,262,262,167,1,K, , , , ,space,1500,1.5,,001,2021-08-19_16h09.02.693,natb3,2021.2.3,MacIntel,60.0024001,610ea2d0044e58da001f025d,611e07ecdcc96256ae8d5b80,611e72fb3bdb1cf49aef65c6,
,,,,,,,0,263,263,133,1,X, ,4, ,6,,2500,2.5,,001,2021-08-19_16h09.02.693,natb3,2021.2.3,MacIntel,60.0024001,610ea2d0044e58da001f025d,611e07ecdcc96256ae8d5b80,611e72fb3bdb1cf49aef65c6,
,,,,space,0.3816,,0,264,264,323,1,M, , , , ,space,2500,2.5,,001,2021-08-19_16h09.02.693,natb3,2021.2.3,MacIntel,60.0024001,610ea2d0044e58da001f025d,611e07ecdcc96256ae8d5b80,611e72fb3bdb1cf49aef65c6,
,,,,space,0.5009,,0,265,265,219,1,Y, , , , ,space,2000,2,,001,2021-08-19_16h09.02.693,natb3,2021.2.3,MacIntel,60.0024001,610ea2d0044e58da001f025d,611e07ecdcc96256ae8d5b80,611e72fb3bdb1cf49aef65c6,
,,,,space,0.4175,,0,266,266,86,1,G, , , , ,space,2000,2,,001,2021-08-19_16h09.02.693,natb3,2021.2.3,MacIntel,60.0024001,610ea2d0044e58da001f025d,611e07ecdcc96256ae8d5b80,611e72fb3bdb1cf49aef65c6,
,,,,,,,0,267,267,236,1,X,3, ,4,7,,2500,2.5,,001,2021-08-19_16h09.02.693,natb3,2021.2.3,MacIntel,60.0024001,610ea2d0044e58da001f025d,611e07ecdcc96256ae8d5b80,611e72fb3bdb1cf49aef65c6,
,,,,space,0.3661,,0,268,268,163,1,G, , , , ,space,2500,2.5,,001,2021-08-19_16h09.02.693,natb3,2021.2.3,MacIntel,60.0024001,610ea2d0044e58da001f025d,611e07ecdcc96256ae8d5b80,611e72fb3bdb1cf49aef65c6,
,,,,space,0.3842,,0,269,269,235,1,A, , , , ,space,1500,1.5,,001,2021-08-19_16h09.02.693,natb3,2021.2.3,MacIntel,60.0024001,610ea2d0044e58da001f025d,611e07ecdcc96256ae8d5b80,611e72fb3bdb1cf49aef65c6,
,,,,space,0.4343,,0,270,270,266,1,O, , , , ,space,1500,1.5,,001,2021-08-19_16h09.02.693,natb3,2021.2.3,MacIntel,60.0024001,610ea2d0044e58da001f025d,611e07ecdcc96256ae8d5b80,611e72fb3bdb1cf49aef65c6,
,,,,,,,0,271,271,27,1,X,5, ,1,3,,1500,1.5,,001,2021-08-19_16h09.02.693,natb3,2021.2.3,MacIntel,60.0024001,610ea2d0044e58da001f025d,611e07ecdcc96256ae8d5b80,611e72fb3bdb1cf49aef65c6,
,,,,space,0.6505,,0,272,272,285,1,B, , , , ,space,1500,1.5,,001,2021-08-19_16h09.02.693,natb3,2021.2.3,MacIntel,60.0024001,610ea2d0044e58da001f025d,611e07ecdcc96256ae8d5b80,611e72fb3bdb1cf49aef65c6,
,,,,space,0.434,,0,273,273,257,1,W, , , , ,space,2000,2,,001,2021-08-19_16h09.02.693,natb3,2021.2.3,MacIntel,60.0024001,610ea2d0044e58da001f025d,611e07ecdcc96256ae8d5b80,611e72fb3bdb1cf49aef65c6,
,,,,,,,0,274,274,203,1,X, , , , ,,2500,2.5,,001,2021-08-19_16h09.02.693,natb3,2021.2.3,MacIntel,60.0024001,610ea2d0044e58da001f025d,611e07ecdcc96256ae8d5b80,611e72fb3bdb1cf49aef65c6,
,,,,space,0.349,,0,275,275,37,1,E, , , , ,space,2500,2.5,,001,2021-08-19_16h09.02.693,natb3,2021.2.3,MacIntel,60.0024001,610ea2d0044e58da001f025d,611e07ecdcc96256ae8d5b80,611e72fb3bdb1cf49aef65c6,
,,,,space,0.4004,,0,276,276,184,1,T, , , , ,space,2000,2,,001,2021-08-19_16h09.02.693,natb3,2021.2.3,MacIntel,60.0024001,610ea2d0044e58da001f025d,611e07ecdcc96256ae8d5b80,611e72fb3bdb1cf49aef65c6,
,,,,space,0.4001,,0,277,277,310,1,J, , , , ,space,2500,2.5,,001,2021-08-19_16h09.02.693,natb3,2021.2.3,MacIntel,60.0024001,610ea2d0044e58da001f025d,611e07ecdcc96256ae8d5b80,611e72fb3bdb1cf49aef65c6,
,,,,space,0.4172,,0,278,278,301,1,P, , , , ,space,1500,1.5,,001,2021-08-19_16h09.02.693,natb3,2021.2.3,MacIntel,60.0024001,610ea2d0044e58da001f025d,611e07ecdcc96256ae8d5b80,611e72fb3bdb1cf49aef65c6,
,,,,space,0.4164,,0,279,279,26,1,C, , , , ,space,2000,2,,001,2021-08-19_16h09.02.693,natb3,2021.2.3,MacIntel,60.0024001,610ea2d0044e58da001f025d,611e07ecdcc96256ae8d5b80,611e72fb3bdb1cf49aef65c6,
,,,,space,0.3667,,0,280,280,314,1,L, , , , ,space,1500,1.5,,001,2021-08-19_16h09.02.693,natb3,2021.2.3,MacIntel,60.0024001,610ea2d0044e58da001f025d,611e07ecdcc96256ae8d5b80,611e72fb3bdb1cf49aef65c6,
,,,,space,0.417,,0,281,281,109,1,U, , , , ,space,1500,1.5,,001,2021-08-19_16h09.02.693,natb3,2021.2.3,MacIntel,60.0024001,610ea2d0044e58da001f025d,611e07ecdcc96256ae8d5b80,611e72fb3bdb1cf49aef65c6,
,,,,space,0.3502,,0,282,282,304,1,S, , , , ,space,2000,2,,001,2021-08-19_16h09.02.693,natb3,2021.2.3,MacIntel,60.0024001,610ea2d0044e58da001f025d,611e07ecdcc96256ae8d5b80,611e72fb3bdb1cf49aef65c6,
,,,,space,0.35,,0,283,283,22,1,K, , , , ,space,2000,2,,001,2021-08-19_16h09.02.693,natb3,2021.2.3,MacIntel,60.0024001,610ea2d0044e58da001f025d,611e07ecdcc96256ae8d5b80,611e72fb3bdb1cf49aef65c6,
,,,,,,,0,284,284,162,1,X,1,6, ,2,,1500,1.5,,001,2021-08-19_16h09.02.693,natb3,2021.2.3,MacIntel,60.0024001,610ea2d0044e58da001f025d,611e07ecdcc96256ae8d5b80,611e72fb3bdb1cf49aef65c6,
,,,,space,0.3005,,0,285,285,28,1,V, , , , ,space,1500,1.5,,001,2021-08-19_16h09.02.693,natb3,2021.2.3,MacIntel,60.0024001,610ea2d0044e58da001f025d,611e07ecdcc96256ae8d5b80,611e72fb3bdb1cf49aef65c6,
,,,,,,,0,286,286,12,1,X, , , , ,,1500,1.5,,001,2021-08-19_16h09.02.693,natb3,2021.2.3,MacIntel,60.0024001,610ea2d0044e58da001f025d,611e07ecdcc96256ae8d5b80,611e72fb3bdb1cf49aef65c6,
,,,,,,,0,287,287,273,1,X, , , , ,,2000,2,,001,2021-08-19_16h09.02.693,natb3,2021.2.3,MacIntel,60.0024001,610ea2d0044e58da001f025d,611e07ecdcc96256ae8d5b80,611e72fb3bdb1cf49aef65c6,
,,,,space,0.3832,,0,288,288,170,1,Z, , , , ,space,2000,2,,001,2021-08-19_16h09.02.693,natb3,2021.2.3,MacIntel,60.0024001,610ea2d0044e58da001f025d,611e07ecdcc96256ae8d5b80,611e72fb3bdb1cf49aef65c6,
,,,,space,0.3684,,0,289,289,330,1,T, , , , ,space,2500,2.5,,001,2021-08-19_16h09.02.693,natb3,2021.2.3,MacIntel,60.0024001,610ea2d0044e58da001f025d,611e07ecdcc96256ae8d5b80,611e72fb3bdb1cf49aef65c6,
,,,,space,0.4172,,0,290,290,334,1,O, , , , ,space,1500,1.5,,001,2021-08-19_16h09.02.693,natb3,2021.2.3,MacIntel,60.0024001,610ea2d0044e58da001f025d,611e07ecdcc96256ae8d5b80,611e72fb3bdb1cf49aef65c6,
,,,,space,0.3668,,0,291,291,143,1,M, , , , ,space,2500,2.5,,001,2021-08-19_16h09.02.693,natb3,2021.2.3,MacIntel,60.0024001,610ea2d0044e58da001f025d,611e07ecdcc96256ae8d5b80,611e72fb3bdb1cf49aef65c6,
,,,,space,0.3829,,0,292,292,127,1,S, , , , ,space,2500,2.5,,001,2021-08-19_16h09.02.693,natb3,2021.2.3,MacIntel,60.0024001,610ea2d0044e58da001f025d,611e07ecdcc96256ae8d5b80,611e72fb3bdb1cf49aef65c6,
,,,,space,0.4003,,0,293,293,64,1,N, , , , ,space,2000,2,,001,2021-08-19_16h09.02.693,natb3,2021.2.3,MacIntel,60.0024001,610ea2d0044e58da001f025d,611e07ecdcc96256ae8d5b80,611e72fb3bdb1cf49aef65c6,
,,,,space,0.417,,0,294,294,327,1,E, , , , ,space,1500,1.5,,001,2021-08-19_16h09.02.693,natb3,2021.2.3,MacIntel,60.0024001,610ea2d0044e58da001f025d,611e07ecdcc96256ae8d5b80,611e72fb3bdb1cf49aef65c6,
,,,,space,0.3336,,0,295,295,240,1,F, , , , ,space,2500,2.5,,001,2021-08-19_16h09.02.693,natb3,2021.2.3,MacIntel,60.0024001,610ea2d0044e58da001f025d,611e07ecdcc96256ae8d5b80,611e72fb3bdb1cf49aef65c6,
,,,,space,0.3842,,0,296,296,92,1,Z, , , , ,space,1500,1.5,,001,2021-08-19_16h09.02.693,natb3,2021.2.3,MacIntel,60.0024001,610ea2d0044e58da001f025d,611e07ecdcc96256ae8d5b80,611e72fb3bdb1cf49aef65c6,
,,,,space,0.3675,,0,297,297,300,1,O, , , , ,space,2500,2.5,,001,2021-08-19_16h09.02.693,natb3,2021.2.3,MacIntel,60.0024001,610ea2d0044e58da001f025d,611e07ecdcc96256ae8d5b80,611e72fb3bdb1cf49aef65c6,
,,,,space,0.3315,,0,298,298,119,1,Y, , , , ,space,2500,2.5,,001,2021-08-19_16h09.02.693,natb3,2021.2.3,MacIntel,60.0024001,610ea2d0044e58da001f025d,611e07ecdcc96256ae8d5b80,611e72fb3bdb1cf49aef65c6,
,,,,space,0.3831,,0,299,299,11,1,P, , , , ,space,2500,2.5,,001,2021-08-19_16h09.02.693,natb3,2021.2.3,MacIntel,60.0024001,610ea2d0044e58da001f025d,611e07ecdcc96256ae8d5b80,611e72fb3bdb1cf49aef65c6,
,,,,space,0.5178,,0,300,300,121,1,I, , , , ,space,2000,2,,001,2021-08-19_16h09.02.693,natb3,2021.2.3,MacIntel,60.0024001,610ea2d0044e58da001f025d,611e07ecdcc96256ae8d5b80,611e72fb3bdb1cf49aef65c6,
,,,,space,0.3833,,0,301,301,177,1,M, , , , ,space,2500,2.5,,001,2021-08-19_16h09.02.693,natb3,2021.2.3,MacIntel,60.0024001,610ea2d0044e58da001f025d,611e07ecdcc96256ae8d5b80,611e72fb3bdb1cf49aef65c6,
,,,,,,,0,302,302,311,1,X,1,2,7,3,,2500,2.5,,001,2021-08-19_16h09.02.693,natb3,2021.2.3,MacIntel,60.0024001,610ea2d0044e58da001f025d,611e07ecdcc96256ae8d5b80,611e72fb3bdb1cf49aef65c6,
,,,,,,,0,303,303,43,1,X, ,6, ,2,,2500,2.5,,001,2021-08-19_16h09.02.693,natb3,2021.2.3,MacIntel,60.0024001,610ea2d0044e58da001f025d,611e07ecdcc96256ae8d5b80,611e72fb3bdb1cf49aef65c6,
,,,,space,0.3498,,0,304,304,93,1,X,5, ,7, ,,2500,2.5,,001,2021-08-19_16h09.02.693,natb3,2021.2.3,MacIntel,60.0024001,610ea2d0044e58da001f025d,611e07ecdcc96256ae8d5b80,611e72fb3bdb1cf49aef65c6,
,,,,space,0.4329,,0,305,305,210,1,M, , , , ,space,1500,1.5,,001,2021-08-19_16h09.02.693,natb3,2021.2.3,MacIntel,60.0024001,610ea2d0044e58da001f025d,611e07ecdcc96256ae8d5b80,611e72fb3bdb1cf49aef65c6,
,,,,space,0.4521,,0,306,306,283,1,C, , , , ,space,1500,1.5,,001,2021-08-19_16h09.02.693,natb3,2021.2.3,MacIntel,60.0024001,610ea2d0044e58da001f025d,611e07ecdcc96256ae8d5b80,611e72fb3bdb1cf49aef65c6,
,,,,space,0.9004,,0,307,307,87,1,H, , , , ,space,1500,1.5,,001,2021-08-19_16h09.02.693,natb3,2021.2.3,MacIntel,60.0024001,610ea2d0044e58da001f025d,611e07ecdcc96256ae8d5b80,611e72fb3bdb1cf49aef65c6,
,,,,space,0.5179,,0,308,308,227,1,T, , , , ,space,1500,1.5,,001,2021-08-19_16h09.02.693,natb3,2021.2.3,MacIntel,60.0024001,610ea2d0044e58da001f025d,611e07ecdcc96256ae8d5b80,611e72fb3bdb1cf49aef65c6,
,,,,space,0.5166,,0,309,309,293,1,R, , , , ,space,2500,2.5,,001,2021-08-19_16h09.02.693,natb3,2021.2.3,MacIntel,60.0024001,610ea2d0044e58da001f025d,611e07ecdcc96256ae8d5b80,611e72fb3bdb1cf49aef65c6,
,,,,space,0.3653,,0,310,310,190,1,P, , , , ,space,2000,2,,001,2021-08-19_16h09.02.693,natb3,2021.2.3,MacIntel,60.0024001,610ea2d0044e58da001f025d,611e07ecdcc96256ae8d5b80,611e72fb3bdb1cf49aef65c6,
,,,,space,0.3449,,0,311,311,217,1,T, , , , ,space,2500,2.5,,001,2021-08-19_16h09.02.693,natb3,2021.2.3,MacIntel,60.0024001,610ea2d0044e58da001f025d,611e07ecdcc96256ae8d5b80,611e72fb3bdb1cf49aef65c6,
,,,,space,0.3843,,0,312,312,250,1,V, , , , ,space,2000,2,,001,2021-08-19_16h09.02.693,natb3,2021.2.3,MacIntel,60.0024001,610ea2d0044e58da001f025d,611e07ecdcc96256ae8d5b80,611e72fb3bdb1cf49aef65c6,
,,,,space,0.3618,,0,313,313,154,1,I, , , , ,space,2500,2.5,,001,2021-08-19_16h09.02.693,natb3,2021.2.3,MacIntel,60.0024001,610ea2d0044e58da001f025d,611e07ecdcc96256ae8d5b80,611e72fb3bdb1cf49aef65c6,
,,,,space,0.4175,,0,314,314,281,1,Z, , , , ,space,1500,1.5,,001,2021-08-19_16h09.02.693,natb3,2021.2.3,MacIntel,60.0024001,610ea2d0044e58da001f025d,611e07ecdcc96256ae8d5b80,611e72fb3bdb1cf49aef65c6,
,,,,space,0.3838,,0,315,315,205,1,C, , , , ,space,2000,2,,001,2021-08-19_16h09.02.693,natb3,2021.2.3,MacIntel,60.0024001,610ea2d0044e58da001f025d,611e07ecdcc96256ae8d5b80,611e72fb3bdb1cf49aef65c6,
,,,,space,0.317,,0,316,316,55,1,H, , , , ,space,2500,2.5,,001,2021-08-19_16h09.02.693,natb3,2021.2.3,MacIntel,60.0024001,610ea2d0044e58da001f025d,611e07ecdcc96256ae8d5b80,611e72fb3bdb1cf49aef65c6,
,,,,space,0.3501,,0,317,317,2,1,E, , , , ,space,2500,2.5,,001,2021-08-19_16h09.02.693,natb3,2021.2.3,MacIntel,60.0024001,610ea2d0044e58da001f025d,611e07ecdcc96256ae8d5b80,611e72fb3bdb1cf49aef65c6,
,,,,space,0.32,,0,318,318,292,1,E, , , , ,space,2000,2,,001,2021-08-19_16h09.02.693,natb3,2021.2.3,MacIntel,60.0024001,610ea2d0044e58da001f025d,611e07ecdcc96256ae8d5b80,611e72fb3bdb1cf49aef65c6,
,,,,space,0.3502,,0,319,319,238,1,D, , , , ,space,1500,1.5,,001,2021-08-19_16h09.02.693,natb3,2021.2.3,MacIntel,60.0024001,610ea2d0044e58da001f025d,611e07ecdcc96256ae8d5b80,611e72fb3bdb1cf49aef65c6,
,,,,space,0.3019,,0,320,320,137,1,C, , , , ,space,2500,2.5,,001,2021-08-19_16h09.02.693,natb3,2021.2.3,MacIntel,60.0024001,610ea2d0044e58da001f025d,611e07ecdcc96256ae8d5b80,611e72fb3bdb1cf49aef65c6,
,,,,space,0.3834,,0,321,321,181,1,E, , , , ,space,1500,1.5,,001,2021-08-19_16h09.02.693,natb3,2021.2.3,MacIntel,60.0024001,610ea2d0044e58da001f025d,611e07ecdcc96256ae8d5b80,611e72fb3bdb1cf49aef65c6,
,,,,space,0.319,,0,322,322,234,1,P, , , , ,space,2000,2,,001,2021-08-19_16h09.02.693,natb3,2021.2.3,MacIntel,60.0024001,610ea2d0044e58da001f025d,611e07ecdcc96256ae8d5b80,611e72fb3bdb1cf49aef65c6,
,,,,,,,0,323,323,39,1,X,6,2, , ,,1500,1.5,,001,2021-08-19_16h09.02.693,natb3,2021.2.3,MacIntel,60.0024001,610ea2d0044e58da001f025d,611e07ecdcc96256ae8d5b80,611e72fb3bdb1cf49aef65c6,
,,,,,,,0,324,324,229,1,X,8, ,2,6,,2500,2.5,,001,2021-08-19_16h09.02.693,natb3,2021.2.3,MacIntel,60.0024001,610ea2d0044e58da001f025d,611e07ecdcc96256ae8d5b80,611e72fb3bdb1cf49aef65c6,
,,,,space,0.4652,,0,325,325,95,1,V, , , , ,space,1500,1.5,,001,2021-08-19_16h09.02.693,natb3,2021.2.3,MacIntel,60.0024001,610ea2d0044e58da001f025d,611e07ecdcc96256ae8d5b80,611e72fb3bdb1cf49aef65c6,
,,,,space,0.4167,,0,326,326,256,1,Q, , , , ,space,2000,2,,001,2021-08-19_16h09.02.693,natb3,2021.2.3,MacIntel,60.0024001,610ea2d0044e58da001f025d,611e07ecdcc96256ae8d5b80,611e72fb3bdb1cf49aef65c6,
,,,,space,0.3508,,0,327,327,173,1,V, , , , ,space,1500,1.5,,001,2021-08-19_16h09.02.693,natb3,2021.2.3,MacIntel,60.0024001,610ea2d0044e58da001f025d,611e07ecdcc96256ae8d5b80,611e72fb3bdb1cf49aef65c6,
,,,,space,0.385,,0,328,328,242,1,H, , , , ,space,2500,2.5,,001,2021-08-19_16h09.02.693,natb3,2021.2.3,MacIntel,60.0024001,610ea2d0044e58da001f025d,611e07ecdcc96256ae8d5b80,611e72fb3bdb1cf49aef65c6,
,,,,space,0.4339,,0,329,329,150,1,T, , , , ,space,2500,2.5,,001,2021-08-19_16h09.02.693,natb3,2021.2.3,MacIntel,60.0024001,610ea2d0044e58da001f025d,611e07ecdcc96256ae8d5b80,611e72fb3bdb1cf49aef65c6,
,,,,,,,0,330,330,4,1,X, , , , ,,2000,2,,001,2021-08-19_16h09.02.693,natb3,2021.2.3,MacIntel,60.0024001,610ea2d0044e58da001f025d,611e07ecdcc96256ae8d5b80,611e72fb3bdb1cf49aef65c6,
,,,,space,0.3008,,0,331,331,79,1,P, , , , ,space,2000,2,,001,2021-08-19_16h09.02.693,natb3,2021.2.3,MacIntel,60.0024001,610ea2d0044e58da001f025d,611e07ecdcc96256ae8d5b80,611e72fb3bdb1cf49aef65c6,
,,,,space,0.3323,,0,332,332,46,1,X, , , , ,,2000,2,,001,2021-08-19_16h09.02.693,natb3,2021.2.3,MacIntel,60.0024001,610ea2d0044e58da001f025d,611e07ecdcc96256ae8d5b80,611e72fb3bdb1cf49aef65c6,
,,,,,,,0,333,333,33,1,X, , , , ,,1500,1.5,,001,2021-08-19_16h09.02.693,natb3,2021.2.3,MacIntel,60.0024001,610ea2d0044e58da001f025d,611e07ecdcc96256ae8d5b80,611e72fb3bdb1cf49aef65c6,
,,,,space,0.4336,,0,334,334,253,1,N, , , , ,space,2500,2.5,,001,2021-08-19_16h09.02.693,natb3,2021.2.3,MacIntel,60.0024001,610ea2d0044e58da001f025d,611e07ecdcc96256ae8d5b80,611e72fb3bdb1cf49aef65c6,
,,,,space,0.4167,,0,335,335,206,1,V, , , , ,space,2000,2,,001,2021-08-19_16h09.02.693,natb3,2021.2.3,MacIntel,60.0024001,610ea2d0044e58da001f025d,611e07ecdcc96256ae8d5b80,611e72fb3bdb1cf49aef65c6,
