key_resp_2.keys,key_resp_2.rt,key_resp_3.keys,key_resp_3.rt,key_resp.keys,key_resp.rt,key_resp_4.keys,trials.thisRepN,trials.thisTrialN,trials.thisN,trials.thisIndex,trials.ran,stimulus,distractor1,distractor2,distractor3,distractor4,CorrAns,isi_duration,isi_dur_in_seconds,participant,session,date,expName,psychopyVersion,OS,frameRate,PROLIFIC_PID,STUDY_ID,SESSION_ID,key_resp_4.rt
return,9.1891,space,14.059,space,0.389,,0,0,0,0,1,Q, , , , ,space,1500,1.5,,001,2021-08-19_16h15.53.104,natb3,2021.2.3,Win32,59.97720866,611645b93f0840eae41426f5,611e07ecdcc96256ae8d5b80,611e757cec4ee9abf3eb2b8f,
,,,,space,0.3847,,0,1,1,286,1,N, , , , ,space,1500,1.5,,001,2021-08-19_16h15.53.104,natb3,2021.2.3,Win32,59.97720866,611645b93f0840eae41426f5,611e07ecdcc96256ae8d5b80,611e757cec4ee9abf3eb2b8f,
,,,,space,0.3778,,0,2,2,3,1,R, , , , ,space,2000,2,,001,2021-08-19_16h15.53.104,natb3,2021.2.3,Win32,59.97720866,611645b93f0840eae41426f5,611e07ecdcc96256ae8d5b80,611e757cec4ee9abf3eb2b8f,
,,,,space,0.444,,0,3,3,95,1,V, , , , ,space,1500,1.5,,001,2021-08-19_16h15.53.104,natb3,2021.2.3,Win32,59.97720866,611645b93f0840eae41426f5,611e07ecdcc96256ae8d5b80,611e757cec4ee9abf3eb2b8f,
,,,,space,0.4069,,0,4,4,77,1,O, , , , ,space,2000,2,,001,2021-08-19_16h15.53.104,natb3,2021.2.3,Win32,59.97720866,611645b93f0840eae41426f5,611e07ecdcc96256ae8d5b80,611e757cec4ee9abf3eb2b8f,
,,,,,,,0,5,5,268,1,X,6, ,3, ,,2500,2.5,,001,2021-08-19_16h15.53.104,natb3,2021.2.3,Win32,59.97720866,611645b93f0840eae41426f5,611e07ecdcc96256ae8d5b80,611e757cec4ee9abf3eb2b8f,
,,,,,,,0,6,6,138,1,X,8,5, ,3,,2000,2,,001,2021-08-19_16h15.53.104,natb3,2021.2.3,Win32,59.97720866,611645b93f0840eae41426f5,611e07ecdcc96256ae8d5b80,611e757cec4ee9abf3eb2b8f,
,,,,space,0.4616,,0,7,7,161,1,F, , , , ,space,1500,1.5,,001,2021-08-19_16h15.53.104,natb3,2021.2.3,Win32,59.97720866,611645b93f0840eae41426f5,611e07ecdcc96256ae8d5b80,611e757cec4ee9abf3eb2b8f,
,,,,space,0.4125,,0,8,8,42,1,U, , , , ,space,1500,1.5,,001,2021-08-19_16h15.53.104,natb3,2021.2.3,Win32,59.97720866,611645b93f0840eae41426f5,611e07ecdcc96256ae8d5b80,611e757cec4ee9abf3eb2b8f,
,,,,,,,0,9,9,243,1,X, , , , ,,2500,2.5,,001,2021-08-19_16h15.53.104,natb3,2021.2.3,Win32,59.97720866,611645b93f0840eae41426f5,611e07ecdcc96256ae8d5b80,611e757cec4ee9abf3eb2b8f,
,,,,space,0.4627,,0,10,10,290,1,W, , , , ,space,1500,1.5,,001,2021-08-19_16h15.53.104,natb3,2021.2.3,Win32,59.97720866,611645b93f0840eae41426f5,611e07ecdcc96256ae8d5b80,611e757cec4ee9abf3eb2b8f,
,,,,space,0.4398,,0,11,11,274,1,F, , , , ,space,2000,2,,001,2021-08-19_16h15.53.104,natb3,2021.2.3,Win32,59.97720866,611645b93f0840eae41426f5,611e07ecdcc96256ae8d5b80,611e757cec4ee9abf3eb2b8f,
,,,,space,0.3509,,0,12,12,126,1,A, , , , ,space,2500,2.5,,001,2021-08-19_16h15.53.104,natb3,2021.2.3,Win32,59.97720866,611645b93f0840eae41426f5,611e07ecdcc96256ae8d5b80,611e757cec4ee9abf3eb2b8f,
,,,,space,0.3696,,0,13,13,208,1,B, , , , ,space,1500,1.5,,001,2021-08-19_16h15.53.104,natb3,2021.2.3,Win32,59.97720866,611645b93f0840eae41426f5,611e07ecdcc96256ae8d5b80,611e757cec4ee9abf3eb2b8f,
,,,,space,0.4748,,0,14,14,169,1,L, , , , ,space,2500,2.5,,001,2021-08-19_16h15.53.104,natb3,2021.2.3,Win32,59.97720866,611645b93f0840eae41426f5,611e07ecdcc96256ae8d5b80,611e757cec4ee9abf3eb2b8f,
,,,,space,0.3881,,0,15,15,5,1,T, , , , ,space,2000,2,,001,2021-08-19_16h15.53.104,natb3,2021.2.3,Win32,59.97720866,611645b93f0840eae41426f5,611e07ecdcc96256ae8d5b80,611e757cec4ee9abf3eb2b8f,
,,,,space,0.3414,,0,16,16,235,1,A, , , , ,space,1500,1.5,,001,2021-08-19_16h15.53.104,natb3,2021.2.3,Win32,59.97720866,611645b93f0840eae41426f5,611e07ecdcc96256ae8d5b80,611e757cec4ee9abf3eb2b8f,
,,,,space,0.4017,,0,17,17,68,1,W, , , , ,space,2500,2.5,,001,2021-08-19_16h15.53.104,natb3,2021.2.3,Win32,59.97720866,611645b93f0840eae41426f5,611e07ecdcc96256ae8d5b80,611e757cec4ee9abf3eb2b8f,
,,,,space,0.4399,,0,18,18,55,1,H, , , , ,space,2500,2.5,,001,2021-08-19_16h15.53.104,natb3,2021.2.3,Win32,59.97720866,611645b93f0840eae41426f5,611e07ecdcc96256ae8d5b80,611e757cec4ee9abf3eb2b8f,
,,,,space,0.3679,,0,19,19,292,1,E, , , , ,space,2000,2,,001,2021-08-19_16h15.53.104,natb3,2021.2.3,Win32,59.97720866,611645b93f0840eae41426f5,611e07ecdcc96256ae8d5b80,611e757cec4ee9abf3eb2b8f,
,,,,space,0.3674,,0,20,20,241,1,G, , , , ,space,2500,2.5,,001,2021-08-19_16h15.53.104,natb3,2021.2.3,Win32,59.97720866,611645b93f0840eae41426f5,611e07ecdcc96256ae8d5b80,611e757cec4ee9abf3eb2b8f,
,,,,space,0.3422,,0,21,21,221,1,I, , , , ,space,2500,2.5,,001,2021-08-19_16h15.53.104,natb3,2021.2.3,Win32,59.97720866,611645b93f0840eae41426f5,611e07ecdcc96256ae8d5b80,611e757cec4ee9abf3eb2b8f,
,,,,space,0.3565,,0,22,22,272,1,D, , , , ,space,2000,2,,001,2021-08-19_16h15.53.104,natb3,2021.2.3,Win32,59.97720866,611645b93f0840eae41426f5,611e07ecdcc96256ae8d5b80,611e757cec4ee9abf3eb2b8f,
,,,,space,0.3183,,0,23,23,24,1,L, , , , ,space,2500,2.5,,001,2021-08-19_16h15.53.104,natb3,2021.2.3,Win32,59.97720866,611645b93f0840eae41426f5,611e07ecdcc96256ae8d5b80,611e757cec4ee9abf3eb2b8f,
,,,,,,,0,24,24,259,1,X,8, , ,3,,2500,2.5,,001,2021-08-19_16h15.53.104,natb3,2021.2.3,Win32,59.97720866,611645b93f0840eae41426f5,611e07ecdcc96256ae8d5b80,611e757cec4ee9abf3eb2b8f,
,,,,space,0.4103,,0,25,25,330,1,T, , , , ,space,2500,2.5,,001,2021-08-19_16h15.53.104,natb3,2021.2.3,Win32,59.97720866,611645b93f0840eae41426f5,611e07ecdcc96256ae8d5b80,611e757cec4ee9abf3eb2b8f,
,,,,,,,0,26,26,195,1,X, , , , ,,1500,1.5,,001,2021-08-19_16h15.53.104,natb3,2021.2.3,Win32,59.97720866,611645b93f0840eae41426f5,611e07ecdcc96256ae8d5b80,611e757cec4ee9abf3eb2b8f,
,,,,,,,0,27,27,148,1,X, , , , ,,2000,2,,001,2021-08-19_16h15.53.104,natb3,2021.2.3,Win32,59.97720866,611645b93f0840eae41426f5,611e07ecdcc96256ae8d5b80,611e757cec4ee9abf3eb2b8f,
,,,,space,0.4252,,0,28,28,9,1,I, , , , ,space,1500,1.5,,001,2021-08-19_16h15.53.104,natb3,2021.2.3,Win32,59.97720866,611645b93f0840eae41426f5,611e07ecdcc96256ae8d5b80,611e757cec4ee9abf3eb2b8f,
,,,,space,0.4092,,0,29,29,237,1,S, , , , ,space,1500,1.5,,001,2021-08-19_16h15.53.104,natb3,2021.2.3,Win32,59.97720866,611645b93f0840eae41426f5,611e07ecdcc96256ae8d5b80,611e757cec4ee9abf3eb2b8f,
,,,,space,0.7023,,0,30,30,328,1,R, , , , ,space,1500,1.5,,001,2021-08-19_16h15.53.104,natb3,2021.2.3,Win32,59.97720866,611645b93f0840eae41426f5,611e07ecdcc96256ae8d5b80,611e757cec4ee9abf3eb2b8f,
,,,,space,0.8054,,0,31,31,144,1,Q, , , , ,space,2500,2.5,,001,2021-08-19_16h15.53.104,natb3,2021.2.3,Win32,59.97720866,611645b93f0840eae41426f5,611e07ecdcc96256ae8d5b80,611e757cec4ee9abf3eb2b8f,
,,,,space,0.4448,,0,32,32,262,1,Y, , , , ,space,2500,2.5,,001,2021-08-19_16h15.53.104,natb3,2021.2.3,Win32,59.97720866,611645b93f0840eae41426f5,611e07ecdcc96256ae8d5b80,611e757cec4ee9abf3eb2b8f,
,,,,space,0.4194,,0,33,33,199,1,J, , , , ,space,2500,2.5,,001,2021-08-19_16h15.53.104,natb3,2021.2.3,Win32,59.97720866,611645b93f0840eae41426f5,611e07ecdcc96256ae8d5b80,611e757cec4ee9abf3eb2b8f,
,,,,,,,0,34,34,168,1,X, , , , ,,2500,2.5,,001,2021-08-19_16h15.53.104,natb3,2021.2.3,Win32,59.97720866,611645b93f0840eae41426f5,611e07ecdcc96256ae8d5b80,611e757cec4ee9abf3eb2b8f,
,,,,space,0.3881,,0,35,35,40,1,T, , , , ,space,1500,1.5,,001,2021-08-19_16h15.53.104,natb3,2021.2.3,Win32,59.97720866,611645b93f0840eae41426f5,611e07ecdcc96256ae8d5b80,611e757cec4ee9abf3eb2b8f,
,,,,space,0.3363,,0,36,36,166,1,X, , , , ,,2000,2,,001,2021-08-19_16h15.53.104,natb3,2021.2.3,Win32,59.97720866,611645b93f0840eae41426f5,611e07ecdcc96256ae8d5b80,611e757cec4ee9abf3eb2b8f,
,,,,,,,0,37,37,89,1,X,3, , , ,,2000,2,,001,2021-08-19_16h15.53.104,natb3,2021.2.3,Win32,59.97720866,611645b93f0840eae41426f5,611e07ecdcc96256ae8d5b80,611e757cec4ee9abf3eb2b8f,
,,,,space,0.576,,0,38,38,38,1,R, , , , ,space,2500,2.5,,001,2021-08-19_16h15.53.104,natb3,2021.2.3,Win32,59.97720866,611645b93f0840eae41426f5,611e07ecdcc96256ae8d5b80,611e757cec4ee9abf3eb2b8f,
,,,,space,0.4181,,0,39,39,307,1,F, , , , ,space,2500,2.5,,001,2021-08-19_16h15.53.104,natb3,2021.2.3,Win32,59.97720866,611645b93f0840eae41426f5,611e07ecdcc96256ae8d5b80,611e757cec4ee9abf3eb2b8f,
,,,,space,0.4856,,0,40,40,8,1,U, , , , ,space,1500,1.5,,001,2021-08-19_16h15.53.104,natb3,2021.2.3,Win32,59.97720866,611645b93f0840eae41426f5,611e07ecdcc96256ae8d5b80,611e757cec4ee9abf3eb2b8f,
,,,,,,,0,41,41,4,1,X, , , , ,,2000,2,,001,2021-08-19_16h15.53.104,natb3,2021.2.3,Win32,59.97720866,611645b93f0840eae41426f5,611e07ecdcc96256ae8d5b80,611e757cec4ee9abf3eb2b8f,
,,,,space,0.5382,,0,42,42,37,1,E, , , , ,space,2500,2.5,,001,2021-08-19_16h15.53.104,natb3,2021.2.3,Win32,59.97720866,611645b93f0840eae41426f5,611e07ecdcc96256ae8d5b80,611e757cec4ee9abf3eb2b8f,
,,,,space,0.6138,,0,43,43,135,1,K, , , , ,space,1500,1.5,,001,2021-08-19_16h15.53.104,natb3,2021.2.3,Win32,59.97720866,611645b93f0840eae41426f5,611e07ecdcc96256ae8d5b80,611e757cec4ee9abf3eb2b8f,
,,,,space,0.5184,,0,44,44,34,1,Q, , , , ,space,2500,2.5,,001,2021-08-19_16h15.53.104,natb3,2021.2.3,Win32,59.97720866,611645b93f0840eae41426f5,611e07ecdcc96256ae8d5b80,611e757cec4ee9abf3eb2b8f,
,,,,,,,0,45,45,51,1,X,7,5,8, ,,1500,1.5,,001,2021-08-19_16h15.53.104,natb3,2021.2.3,Win32,59.97720866,611645b93f0840eae41426f5,611e07ecdcc96256ae8d5b80,611e757cec4ee9abf3eb2b8f,
,,,,space,0.4179,,0,46,46,127,1,S, , , , ,space,2500,2.5,,001,2021-08-19_16h15.53.104,natb3,2021.2.3,Win32,59.97720866,611645b93f0840eae41426f5,611e07ecdcc96256ae8d5b80,611e757cec4ee9abf3eb2b8f,
,,,,,,,0,47,47,107,1,X,9,3, ,2,,2000,2,,001,2021-08-19_16h15.53.104,natb3,2021.2.3,Win32,59.97720866,611645b93f0840eae41426f5,611e07ecdcc96256ae8d5b80,611e757cec4ee9abf3eb2b8f,
,,,,space,0.5028,,0,48,48,87,1,H, , , , ,space,1500,1.5,,001,2021-08-19_16h15.53.104,natb3,2021.2.3,Win32,59.97720866,611645b93f0840eae41426f5,611e07ecdcc96256ae8d5b80,611e757cec4ee9abf3eb2b8f,
,,,,space,0.479,,0,49,49,36,1,W, , , , ,space,2000,2,,001,2021-08-19_16h15.53.104,natb3,2021.2.3,Win32,59.97720866,611645b93f0840eae41426f5,611e07ecdcc96256ae8d5b80,611e757cec4ee9abf3eb2b8f,
,,,,space,0.5179,,0,50,50,215,1,E, , , , ,space,2500,2.5,,001,2021-08-19_16h15.53.104,natb3,2021.2.3,Win32,59.97720866,611645b93f0840eae41426f5,611e07ecdcc96256ae8d5b80,611e757cec4ee9abf3eb2b8f,
,,,,space,0.5841,,0,51,51,70,1,E, , , , ,space,2500,2.5,,001,2021-08-19_16h15.53.104,natb3,2021.2.3,Win32,59.97720866,611645b93f0840eae41426f5,611e07ecdcc96256ae8d5b80,611e757cec4ee9abf3eb2b8f,
,,,,space,0.5685,,0,52,52,331,1,Y, , , , ,space,2500,2.5,,001,2021-08-19_16h15.53.104,natb3,2021.2.3,Win32,59.97720866,611645b93f0840eae41426f5,611e07ecdcc96256ae8d5b80,611e757cec4ee9abf3eb2b8f,
,,,,space,0.7126,,0,53,53,85,1,F, , , , ,space,2500,2.5,,001,2021-08-19_16h15.53.104,natb3,2021.2.3,Win32,59.97720866,611645b93f0840eae41426f5,611e07ecdcc96256ae8d5b80,611e757cec4ee9abf3eb2b8f,
,,,,space,0.5185,,0,54,54,97,1,B, , , , ,space,2500,2.5,,001,2021-08-19_16h15.53.104,natb3,2021.2.3,Win32,59.97720866,611645b93f0840eae41426f5,611e07ecdcc96256ae8d5b80,611e757cec4ee9abf3eb2b8f,
,,,,space,0.4504,,0,55,55,177,1,M, , , , ,space,2500,2.5,,001,2021-08-19_16h15.53.104,natb3,2021.2.3,Win32,59.97720866,611645b93f0840eae41426f5,611e07ecdcc96256ae8d5b80,611e757cec4ee9abf3eb2b8f,
,,,,space,0.5253,,0,56,56,197,1,G, , , , ,space,2500,2.5,,001,2021-08-19_16h15.53.104,natb3,2021.2.3,Win32,59.97720866,611645b93f0840eae41426f5,611e07ecdcc96256ae8d5b80,611e757cec4ee9abf3eb2b8f,
,,,,space,0.5761,,0,57,57,246,1,L, , , , ,space,2500,2.5,,001,2021-08-19_16h15.53.104,natb3,2021.2.3,Win32,59.97720866,611645b93f0840eae41426f5,611e07ecdcc96256ae8d5b80,611e757cec4ee9abf3eb2b8f,
,,,,space,0.6135,,0,58,58,79,1,P, , , , ,space,2000,2,,001,2021-08-19_16h15.53.104,natb3,2021.2.3,Win32,59.97720866,611645b93f0840eae41426f5,611e07ecdcc96256ae8d5b80,611e757cec4ee9abf3eb2b8f,
,,,,space,0.5016,,0,59,59,48,1,A, , , , ,space,2500,2.5,,001,2021-08-19_16h15.53.104,natb3,2021.2.3,Win32,59.97720866,611645b93f0840eae41426f5,611e07ecdcc96256ae8d5b80,611e757cec4ee9abf3eb2b8f,
,,,,space,0.5534,,0,60,60,159,1,S, , , , ,space,2500,2.5,,001,2021-08-19_16h15.53.104,natb3,2021.2.3,Win32,59.97720866,611645b93f0840eae41426f5,611e07ecdcc96256ae8d5b80,611e757cec4ee9abf3eb2b8f,
,,,,space,0.7516,,0,61,61,59,1,Z, , , , ,space,2000,2,,001,2021-08-19_16h15.53.104,natb3,2021.2.3,Win32,59.97720866,611645b93f0840eae41426f5,611e07ecdcc96256ae8d5b80,611e757cec4ee9abf3eb2b8f,
,,,,space,0.7695,,0,62,62,92,1,Z, , , , ,space,1500,1.5,,001,2021-08-19_16h15.53.104,natb3,2021.2.3,Win32,59.97720866,611645b93f0840eae41426f5,611e07ecdcc96256ae8d5b80,611e757cec4ee9abf3eb2b8f,
,,,,space,0.6116,,0,63,63,156,1,P, , , , ,space,1500,1.5,,001,2021-08-19_16h15.53.104,natb3,2021.2.3,Win32,59.97720866,611645b93f0840eae41426f5,611e07ecdcc96256ae8d5b80,611e757cec4ee9abf3eb2b8f,
,,,,space,0.4197,,0,64,64,323,1,M, , , , ,space,2500,2.5,,001,2021-08-19_16h15.53.104,natb3,2021.2.3,Win32,59.97720866,611645b93f0840eae41426f5,611e07ecdcc96256ae8d5b80,611e757cec4ee9abf3eb2b8f,
,,,,,,,0,65,65,84,1,X, , , , ,,2000,2,,001,2021-08-19_16h15.53.104,natb3,2021.2.3,Win32,59.97720866,611645b93f0840eae41426f5,611e07ecdcc96256ae8d5b80,611e757cec4ee9abf3eb2b8f,
,,,,,,,0,66,66,325,1,X, , , , ,,2500,2.5,,001,2021-08-19_16h15.53.104,natb3,2021.2.3,Win32,59.97720866,611645b93f0840eae41426f5,611e07ecdcc96256ae8d5b80,611e757cec4ee9abf3eb2b8f,
,,,,,,,0,67,67,122,1,X,1, , ,8,,1500,1.5,,001,2021-08-19_16h15.53.104,natb3,2021.2.3,Win32,59.97720866,611645b93f0840eae41426f5,611e07ecdcc96256ae8d5b80,611e757cec4ee9abf3eb2b8f,
,,,,space,0.4676,,0,68,68,173,1,V, , , , ,space,1500,1.5,,001,2021-08-19_16h15.53.104,natb3,2021.2.3,Win32,59.97720866,611645b93f0840eae41426f5,611e07ecdcc96256ae8d5b80,611e757cec4ee9abf3eb2b8f,
,,,,space,0.4072,,0,69,69,11,1,P, , , , ,space,2500,2.5,,001,2021-08-19_16h15.53.104,natb3,2021.2.3,Win32,59.97720866,611645b93f0840eae41426f5,611e07ecdcc96256ae8d5b80,611e757cec4ee9abf3eb2b8f,
,,,,space,0.447,,0,70,70,113,1,W, , , , ,space,2500,2.5,,001,2021-08-19_16h15.53.104,natb3,2021.2.3,Win32,59.97720866,611645b93f0840eae41426f5,611e07ecdcc96256ae8d5b80,611e757cec4ee9abf3eb2b8f,
,,,,,,,0,71,71,255,1,X, , , , ,,1500,1.5,,001,2021-08-19_16h15.53.104,natb3,2021.2.3,Win32,59.97720866,611645b93f0840eae41426f5,611e07ecdcc96256ae8d5b80,611e757cec4ee9abf3eb2b8f,
,,,,space,0.4174,,0,72,72,14,1,S, , , , ,space,2500,2.5,,001,2021-08-19_16h15.53.104,natb3,2021.2.3,Win32,59.97720866,611645b93f0840eae41426f5,611e07ecdcc96256ae8d5b80,611e757cec4ee9abf3eb2b8f,
,,,,space,0.5265,,0,73,73,281,1,Z, , , , ,space,1500,1.5,,001,2021-08-19_16h15.53.104,natb3,2021.2.3,Win32,59.97720866,611645b93f0840eae41426f5,611e07ecdcc96256ae8d5b80,611e757cec4ee9abf3eb2b8f,
,,,,space,0.7626,,0,74,74,62,1,V, , , , ,space,1500,1.5,,001,2021-08-19_16h15.53.104,natb3,2021.2.3,Win32,59.97720866,611645b93f0840eae41426f5,611e07ecdcc96256ae8d5b80,611e757cec4ee9abf3eb2b8f,
,,,,,,,0,75,75,295,1,X,8,7,5, ,,2500,2.5,,001,2021-08-19_16h15.53.104,natb3,2021.2.3,Win32,59.97720866,611645b93f0840eae41426f5,611e07ecdcc96256ae8d5b80,611e757cec4ee9abf3eb2b8f,
,,,,space,0.5372,,0,76,76,80,1,A, , , , ,space,2000,2,,001,2021-08-19_16h15.53.104,natb3,2021.2.3,Win32,59.97720866,611645b93f0840eae41426f5,611e07ecdcc96256ae8d5b80,611e757cec4ee9abf3eb2b8f,
,,,,space,0.4681,,0,77,77,81,1,S, , , , ,space,2000,2,,001,2021-08-19_16h15.53.104,natb3,2021.2.3,Win32,59.97720866,611645b93f0840eae41426f5,611e07ecdcc96256ae8d5b80,611e757cec4ee9abf3eb2b8f,
,,,,,,,0,78,78,213,1,X, , , , ,,2500,2.5,,001,2021-08-19_16h15.53.104,natb3,2021.2.3,Win32,59.97720866,611645b93f0840eae41426f5,611e07ecdcc96256ae8d5b80,611e757cec4ee9abf3eb2b8f,
,,,,space,0.3735,,0,79,79,309,1,H, , , , ,space,2500,2.5,,001,2021-08-19_16h15.53.104,natb3,2021.2.3,Win32,59.97720866,611645b93f0840eae41426f5,611e07ecdcc96256ae8d5b80,611e757cec4ee9abf3eb2b8f,
,,,,space,0.4949,,0,80,80,6,1,Y, , , , ,space,2500,2.5,,001,2021-08-19_16h15.53.104,natb3,2021.2.3,Win32,59.97720866,611645b93f0840eae41426f5,611e07ecdcc96256ae8d5b80,611e757cec4ee9abf3eb2b8f,
,,,,,,,0,81,81,27,1,X,5, ,1,3,,1500,1.5,,001,2021-08-19_16h15.53.104,natb3,2021.2.3,Win32,59.97720866,611645b93f0840eae41426f5,611e07ecdcc96256ae8d5b80,611e757cec4ee9abf3eb2b8f,
,,,,space,0.5928,,0,82,82,245,1,K, , , , ,space,2000,2,,001,2021-08-19_16h15.53.104,natb3,2021.2.3,Win32,59.97720866,611645b93f0840eae41426f5,611e07ecdcc96256ae8d5b80,611e757cec4ee9abf3eb2b8f,
,,,,space,0.6297,,0,83,83,312,1,K, , , , ,space,2000,2,,001,2021-08-19_16h15.53.104,natb3,2021.2.3,Win32,59.97720866,611645b93f0840eae41426f5,611e07ecdcc96256ae8d5b80,611e757cec4ee9abf3eb2b8f,
,,,,,,,0,84,84,23,1,X,1, ,5, ,,2000,2,,001,2021-08-19_16h15.53.104,natb3,2021.2.3,Win32,59.97720866,611645b93f0840eae41426f5,611e07ecdcc96256ae8d5b80,611e757cec4ee9abf3eb2b8f,
,,,,space,0.4675,,0,85,85,201,1,K, , , , ,space,1500,1.5,,001,2021-08-19_16h15.53.104,natb3,2021.2.3,Win32,59.97720866,611645b93f0840eae41426f5,611e07ecdcc96256ae8d5b80,611e757cec4ee9abf3eb2b8f,
,,,,space,0.4563,,0,86,86,99,1,N, , , , ,space,2500,2.5,,001,2021-08-19_16h15.53.104,natb3,2021.2.3,Win32,59.97720866,611645b93f0840eae41426f5,611e07ecdcc96256ae8d5b80,611e757cec4ee9abf3eb2b8f,
,,,,space,0.4299,,0,87,87,112,1,Q, , , , ,space,2500,2.5,,001,2021-08-19_16h15.53.104,natb3,2021.2.3,Win32,59.97720866,611645b93f0840eae41426f5,611e07ecdcc96256ae8d5b80,611e757cec4ee9abf3eb2b8f,
,,,,space,0.6374,,0,88,88,110,1,I, , , , ,space,1500,1.5,,001,2021-08-19_16h15.53.104,natb3,2021.2.3,Win32,59.97720866,611645b93f0840eae41426f5,611e07ecdcc96256ae8d5b80,611e757cec4ee9abf3eb2b8f,
,,,,,,,0,89,89,299,1,X, , , , ,,2500,2.5,,001,2021-08-19_16h15.53.104,natb3,2021.2.3,Win32,59.97720866,611645b93f0840eae41426f5,611e07ecdcc96256ae8d5b80,611e757cec4ee9abf3eb2b8f,
,,,,space,0.4187,,0,90,90,13,1,A, , , , ,space,2000,2,,001,2021-08-19_16h15.53.104,natb3,2021.2.3,Win32,59.97720866,611645b93f0840eae41426f5,611e07ecdcc96256ae8d5b80,611e757cec4ee9abf3eb2b8f,
,,,,space,0.5728,,0,91,91,289,1,Q, , , , ,space,2000,2,,001,2021-08-19_16h15.53.104,natb3,2021.2.3,Win32,59.97720866,611645b93f0840eae41426f5,611e07ecdcc96256ae8d5b80,611e757cec4ee9abf3eb2b8f,
,,,,,,,0,92,92,125,1,X, , , , ,,2000,2,,001,2021-08-19_16h15.53.104,natb3,2021.2.3,Win32,59.97720866,611645b93f0840eae41426f5,611e07ecdcc96256ae8d5b80,611e757cec4ee9abf3eb2b8f,
,,,,space,0.487,,0,93,93,45,1,O, , , , ,space,2000,2,,001,2021-08-19_16h15.53.104,natb3,2021.2.3,Win32,59.97720866,611645b93f0840eae41426f5,611e07ecdcc96256ae8d5b80,611e757cec4ee9abf3eb2b8f,
,,,,,,,0,94,94,282,1,X, , , , ,,2500,2.5,,001,2021-08-19_16h15.53.104,natb3,2021.2.3,Win32,59.97720866,611645b93f0840eae41426f5,611e07ecdcc96256ae8d5b80,611e757cec4ee9abf3eb2b8f,
,,,,space,0.556,,0,95,95,128,1,D, , , , ,space,2500,2.5,,001,2021-08-19_16h15.53.104,natb3,2021.2.3,Win32,59.97720866,611645b93f0840eae41426f5,611e07ecdcc96256ae8d5b80,611e757cec4ee9abf3eb2b8f,
,,,,,,,0,96,96,39,1,X,6,2, , ,,1500,1.5,,001,2021-08-19_16h15.53.104,natb3,2021.2.3,Win32,59.97720866,611645b93f0840eae41426f5,611e07ecdcc96256ae8d5b80,611e757cec4ee9abf3eb2b8f,
,,,,space,0.5352,,0,97,97,132,1,H, , , , ,space,2500,2.5,,001,2021-08-19_16h15.53.104,natb3,2021.2.3,Win32,59.97720866,611645b93f0840eae41426f5,611e07ecdcc96256ae8d5b80,611e757cec4ee9abf3eb2b8f,
,,,,,,,0,98,98,277,1,X,8,5, ,2,,2000,2,,001,2021-08-19_16h15.53.104,natb3,2021.2.3,Win32,59.97720866,611645b93f0840eae41426f5,611e07ecdcc96256ae8d5b80,611e757cec4ee9abf3eb2b8f,
,,,,space,0.6429,,0,99,99,86,1,G, , , , ,space,2000,2,,001,2021-08-19_16h15.53.104,natb3,2021.2.3,Win32,59.97720866,611645b93f0840eae41426f5,611e07ecdcc96256ae8d5b80,611e757cec4ee9abf3eb2b8f,
,,,,space,0.6678,,0,100,100,155,1,O, , , , ,space,1500,1.5,,001,2021-08-19_16h15.53.104,natb3,2021.2.3,Win32,59.97720866,611645b93f0840eae41426f5,611e07ecdcc96256ae8d5b80,611e757cec4ee9abf3eb2b8f,
,,,,space,0.5551,,0,101,101,278,1,J, , , , ,space,2000,2,,001,2021-08-19_16h15.53.104,natb3,2021.2.3,Win32,59.97720866,611645b93f0840eae41426f5,611e07ecdcc96256ae8d5b80,611e757cec4ee9abf3eb2b8f,
,,,,space,0.5245,,0,102,102,193,1,S, , , , ,space,2500,2.5,,001,2021-08-19_16h15.53.104,natb3,2021.2.3,Win32,59.97720866,611645b93f0840eae41426f5,611e07ecdcc96256ae8d5b80,611e757cec4ee9abf3eb2b8f,
,,,,space,0.4247,,0,103,103,275,1,G, , , , ,space,1500,1.5,,001,2021-08-19_16h15.53.104,natb3,2021.2.3,Win32,59.97720866,611645b93f0840eae41426f5,611e07ecdcc96256ae8d5b80,611e757cec4ee9abf3eb2b8f,
,,,,space,0.4528,,0,104,104,204,1,Z, , , , ,space,2000,2,,001,2021-08-19_16h15.53.104,natb3,2021.2.3,Win32,59.97720866,611645b93f0840eae41426f5,611e07ecdcc96256ae8d5b80,611e757cec4ee9abf3eb2b8f,
,,,,space,0.5422,,0,105,105,47,1,P, , , , ,space,2000,2,,001,2021-08-19_16h15.53.104,natb3,2021.2.3,Win32,59.97720866,611645b93f0840eae41426f5,611e07ecdcc96256ae8d5b80,611e757cec4ee9abf3eb2b8f,
,,,,space,0.6185,,0,106,106,19,1,G, , , , ,space,1500,1.5,,001,2021-08-19_16h15.53.104,natb3,2021.2.3,Win32,59.97720866,611645b93f0840eae41426f5,611e07ecdcc96256ae8d5b80,611e757cec4ee9abf3eb2b8f,
,,,,,,,0,107,107,162,1,X,1,6, ,2,,1500,1.5,,001,2021-08-19_16h15.53.104,natb3,2021.2.3,Win32,59.97720866,611645b93f0840eae41426f5,611e07ecdcc96256ae8d5b80,611e757cec4ee9abf3eb2b8f,
,,,,space,0.4542,,0,108,108,58,1,L, , , , ,space,2000,2,,001,2021-08-19_16h15.53.104,natb3,2021.2.3,Win32,59.97720866,611645b93f0840eae41426f5,611e07ecdcc96256ae8d5b80,611e757cec4ee9abf3eb2b8f,
,,,,space,0.5245,,0,109,109,71,1,R, , , , ,space,2500,2.5,,001,2021-08-19_16h15.53.104,natb3,2021.2.3,Win32,59.97720866,611645b93f0840eae41426f5,611e07ecdcc96256ae8d5b80,611e757cec4ee9abf3eb2b8f,
,,,,space,0.4082,,0,110,110,238,1,D, , , , ,space,1500,1.5,,001,2021-08-19_16h15.53.104,natb3,2021.2.3,Win32,59.97720866,611645b93f0840eae41426f5,611e07ecdcc96256ae8d5b80,611e757cec4ee9abf3eb2b8f,
,,,,,,,0,111,111,102,1,X, ,6, , ,,1500,1.5,,001,2021-08-19_16h15.53.104,natb3,2021.2.3,Win32,59.97720866,611645b93f0840eae41426f5,611e07ecdcc96256ae8d5b80,611e757cec4ee9abf3eb2b8f,
,,,,,,,0,112,112,236,1,X,3, ,4,7,,2500,2.5,,001,2021-08-19_16h15.53.104,natb3,2021.2.3,Win32,59.97720866,611645b93f0840eae41426f5,611e07ecdcc96256ae8d5b80,611e757cec4ee9abf3eb2b8f,
,,,,space,0.5102,,0,113,113,152,1,U, , , , ,space,2000,2,,001,2021-08-19_16h15.53.104,natb3,2021.2.3,Win32,59.97720866,611645b93f0840eae41426f5,611e07ecdcc96256ae8d5b80,611e757cec4ee9abf3eb2b8f,
,,,,,,,0,114,114,60,1,X,7,3,5, ,,1500,1.5,,001,2021-08-19_16h15.53.104,natb3,2021.2.3,Win32,59.97720866,611645b93f0840eae41426f5,611e07ecdcc96256ae8d5b80,611e757cec4ee9abf3eb2b8f,
,,,,space,0.5073,,0,115,115,25,1,Z, , , , ,space,2500,2.5,,001,2021-08-19_16h15.53.104,natb3,2021.2.3,Win32,59.97720866,611645b93f0840eae41426f5,611e07ecdcc96256ae8d5b80,611e757cec4ee9abf3eb2b8f,
,,,,space,0.6351,,0,116,116,216,1,R, , , , ,space,1500,1.5,,001,2021-08-19_16h15.53.104,natb3,2021.2.3,Win32,59.97720866,611645b93f0840eae41426f5,611e07ecdcc96256ae8d5b80,611e757cec4ee9abf3eb2b8f,
,,,,space,0.7427,,0,117,117,117,1,T, , , , ,space,2500,2.5,,001,2021-08-19_16h15.53.104,natb3,2021.2.3,Win32,59.97720866,611645b93f0840eae41426f5,611e07ecdcc96256ae8d5b80,611e757cec4ee9abf3eb2b8f,
,,,,space,0.5348,,0,118,118,298,1,I, , , , ,space,2000,2,,001,2021-08-19_16h15.53.104,natb3,2021.2.3,Win32,59.97720866,611645b93f0840eae41426f5,611e07ecdcc96256ae8d5b80,611e757cec4ee9abf3eb2b8f,
,,,,,,,0,119,119,207,1,X,9, ,2, ,,2500,2.5,,001,2021-08-19_16h15.53.104,natb3,2021.2.3,Win32,59.97720866,611645b93f0840eae41426f5,611e07ecdcc96256ae8d5b80,611e757cec4ee9abf3eb2b8f,
,,,,space,0.4882,,0,120,120,174,1,B, , , , ,space,2500,2.5,,001,2021-08-19_16h15.53.104,natb3,2021.2.3,Win32,59.97720866,611645b93f0840eae41426f5,611e07ecdcc96256ae8d5b80,611e757cec4ee9abf3eb2b8f,
,,,,space,0.5082,,0,121,121,310,1,J, , , , ,space,2500,2.5,,001,2021-08-19_16h15.53.104,natb3,2021.2.3,Win32,59.97720866,611645b93f0840eae41426f5,611e07ecdcc96256ae8d5b80,611e757cec4ee9abf3eb2b8f,
,,,,space,0.5757,,0,122,122,253,1,N, , , , ,space,2500,2.5,,001,2021-08-19_16h15.53.104,natb3,2021.2.3,Win32,59.97720866,611645b93f0840eae41426f5,611e07ecdcc96256ae8d5b80,611e757cec4ee9abf3eb2b8f,
,,,,space,0.5351,,0,123,123,26,1,C, , , , ,space,2000,2,,001,2021-08-19_16h15.53.104,natb3,2021.2.3,Win32,59.97720866,611645b93f0840eae41426f5,611e07ecdcc96256ae8d5b80,611e757cec4ee9abf3eb2b8f,
,,,,space,0.5033,,0,124,124,165,1,J, , , , ,space,2500,2.5,,001,2021-08-19_16h15.53.104,natb3,2021.2.3,Win32,59.97720866,611645b93f0840eae41426f5,611e07ecdcc96256ae8d5b80,611e757cec4ee9abf3eb2b8f,
,,,,space,0.436,,0,125,125,56,1,J, , , , ,space,1500,1.5,,001,2021-08-19_16h15.53.104,natb3,2021.2.3,Win32,59.97720866,611645b93f0840eae41426f5,611e07ecdcc96256ae8d5b80,611e757cec4ee9abf3eb2b8f,
,,,,space,0.4956,,0,126,126,304,1,S, , , , ,space,2000,2,,001,2021-08-19_16h15.53.104,natb3,2021.2.3,Win32,59.97720866,611645b93f0840eae41426f5,611e07ecdcc96256ae8d5b80,611e757cec4ee9abf3eb2b8f,
,,,,space,0.7762,,0,127,127,324,1,Q, , , , ,space,2000,2,,001,2021-08-19_16h15.53.104,natb3,2021.2.3,Win32,59.97720866,611645b93f0840eae41426f5,611e07ecdcc96256ae8d5b80,611e757cec4ee9abf3eb2b8f,
,,,,,,,0,128,128,229,1,X,8, ,2,6,,2500,2.5,,001,2021-08-19_16h15.53.104,natb3,2021.2.3,Win32,59.97720866,611645b93f0840eae41426f5,611e07ecdcc96256ae8d5b80,611e757cec4ee9abf3eb2b8f,
,,,,space,0.5008,,0,129,129,28,1,V, , , , ,space,1500,1.5,,001,2021-08-19_16h15.53.104,natb3,2021.2.3,Win32,59.97720866,611645b93f0840eae41426f5,611e07ecdcc96256ae8d5b80,611e757cec4ee9abf3eb2b8f,
,,,,,,,0,130,130,82,1,X,4,6,1,7,,2000,2,,001,2021-08-19_16h15.53.104,natb3,2021.2.3,Win32,59.97720866,611645b93f0840eae41426f5,611e07ecdcc96256ae8d5b80,611e757cec4ee9abf3eb2b8f,
,,,,space,0.4392,,0,131,131,256,1,Q, , , , ,space,2000,2,,001,2021-08-19_16h15.53.104,natb3,2021.2.3,Win32,59.97720866,611645b93f0840eae41426f5,611e07ecdcc96256ae8d5b80,611e757cec4ee9abf3eb2b8f,
,,,,space,0.5199,,0,132,132,21,1,J, , , , ,space,1500,1.5,,001,2021-08-19_16h15.53.104,natb3,2021.2.3,Win32,59.97720866,611645b93f0840eae41426f5,611e07ecdcc96256ae8d5b80,611e757cec4ee9abf3eb2b8f,
,,,,,,,0,133,133,200,1,X,7, ,5,3,,1500,1.5,,001,2021-08-19_16h15.53.104,natb3,2021.2.3,Win32,59.97720866,611645b93f0840eae41426f5,611e07ecdcc96256ae8d5b80,611e757cec4ee9abf3eb2b8f,
,,,,space,0.4521,,0,134,134,101,1,Q, , , , ,space,2500,2.5,,001,2021-08-19_16h15.53.104,natb3,2021.2.3,Win32,59.97720866,611645b93f0840eae41426f5,611e07ecdcc96256ae8d5b80,611e757cec4ee9abf3eb2b8f,
,,,,,,,0,135,135,305,1,X, , , , ,,1500,1.5,,001,2021-08-19_16h15.53.104,natb3,2021.2.3,Win32,59.97720866,611645b93f0840eae41426f5,611e07ecdcc96256ae8d5b80,611e757cec4ee9abf3eb2b8f,
,,,,space,0.4519,,0,136,136,53,1,G, , , , ,space,2500,2.5,,001,2021-08-19_16h15.53.104,natb3,2021.2.3,Win32,59.97720866,611645b93f0840eae41426f5,611e07ecdcc96256ae8d5b80,611e757cec4ee9abf3eb2b8f,
,,,,space,0.4352,,0,137,137,32,1,M, , , , ,space,1500,1.5,,001,2021-08-19_16h15.53.104,natb3,2021.2.3,Win32,59.97720866,611645b93f0840eae41426f5,611e07ecdcc96256ae8d5b80,611e757cec4ee9abf3eb2b8f,
,,,,,,,0,138,138,171,1,X, , , , ,,1500,1.5,,001,2021-08-19_16h15.53.104,natb3,2021.2.3,Win32,59.97720866,611645b93f0840eae41426f5,611e07ecdcc96256ae8d5b80,611e757cec4ee9abf3eb2b8f,
,,,,space,0.4069,,0,139,139,184,1,T, , , , ,space,2000,2,,001,2021-08-19_16h15.53.104,natb3,2021.2.3,Win32,59.97720866,611645b93f0840eae41426f5,611e07ecdcc96256ae8d5b80,611e757cec4ee9abf3eb2b8f,
,,,,space,0.4303,,0,140,140,108,1,Y, , , , ,space,2500,2.5,,001,2021-08-19_16h15.53.104,natb3,2021.2.3,Win32,59.97720866,611645b93f0840eae41426f5,611e07ecdcc96256ae8d5b80,611e757cec4ee9abf3eb2b8f,
,,,,space,0.4897,,0,141,141,149,1,R, , , , ,space,2000,2,,001,2021-08-19_16h15.53.104,natb3,2021.2.3,Win32,59.97720866,611645b93f0840eae41426f5,611e07ecdcc96256ae8d5b80,611e757cec4ee9abf3eb2b8f,
,,,,space,0.478,,0,142,142,279,1,K, , , , ,space,2500,2.5,,001,2021-08-19_16h15.53.104,natb3,2021.2.3,Win32,59.97720866,611645b93f0840eae41426f5,611e07ecdcc96256ae8d5b80,611e757cec4ee9abf3eb2b8f,
,,,,,,,0,143,143,93,1,X,5, ,7, ,,2500,2.5,,001,2021-08-19_16h15.53.104,natb3,2021.2.3,Win32,59.97720866,611645b93f0840eae41426f5,611e07ecdcc96256ae8d5b80,611e757cec4ee9abf3eb2b8f,
,,,,space,0.5955,,0,144,144,136,1,Z, , , , ,space,2500,2.5,,001,2021-08-19_16h15.53.104,natb3,2021.2.3,Win32,59.97720866,611645b93f0840eae41426f5,611e07ecdcc96256ae8d5b80,611e757cec4ee9abf3eb2b8f,
,,,,,,,0,145,145,129,1,X,2,3,5, ,,1500,1.5,,001,2021-08-19_16h15.53.104,natb3,2021.2.3,Win32,59.97720866,611645b93f0840eae41426f5,611e07ecdcc96256ae8d5b80,611e757cec4ee9abf3eb2b8f,
,,,,space,0.4859,,0,146,146,230,1,U, , , , ,space,1500,1.5,,001,2021-08-19_16h15.53.104,natb3,2021.2.3,Win32,59.97720866,611645b93f0840eae41426f5,611e07ecdcc96256ae8d5b80,611e757cec4ee9abf3eb2b8f,
,,,,space,0.4747,,0,147,147,212,1,Q, , , , ,space,2500,2.5,,001,2021-08-19_16h15.53.104,natb3,2021.2.3,Win32,59.97720866,611645b93f0840eae41426f5,611e07ecdcc96256ae8d5b80,611e757cec4ee9abf3eb2b8f,
,,,,space,0.4245,,0,148,148,314,1,L, , , , ,space,1500,1.5,,001,2021-08-19_16h15.53.104,natb3,2021.2.3,Win32,59.97720866,611645b93f0840eae41426f5,611e07ecdcc96256ae8d5b80,611e757cec4ee9abf3eb2b8f,
,,,,,,,0,149,149,218,1,X,1,3, ,8,,1500,1.5,,001,2021-08-19_16h15.53.104,natb3,2021.2.3,Win32,59.97720866,611645b93f0840eae41426f5,611e07ecdcc96256ae8d5b80,611e757cec4ee9abf3eb2b8f,
,,,,space,0.5576,,0,150,150,321,1,N, , , , ,space,2000,2,,001,2021-08-19_16h15.53.104,natb3,2021.2.3,Win32,59.97720866,611645b93f0840eae41426f5,611e07ecdcc96256ae8d5b80,611e757cec4ee9abf3eb2b8f,
,,,,space,0.4243,,0,151,151,172,1,C, , , , ,space,1500,1.5,,001,2021-08-19_16h15.53.104,natb3,2021.2.3,Win32,59.97720866,611645b93f0840eae41426f5,611e07ecdcc96256ae8d5b80,611e757cec4ee9abf3eb2b8f,
,,,,space,0.368,,0,152,152,143,1,M, , , , ,space,2500,2.5,,001,2021-08-19_16h15.53.104,natb3,2021.2.3,Win32,59.97720866,611645b93f0840eae41426f5,611e07ecdcc96256ae8d5b80,611e757cec4ee9abf3eb2b8f,
,,,,space,0.5014,,0,153,153,244,1,J, , , , ,space,1500,1.5,,001,2021-08-19_16h15.53.104,natb3,2021.2.3,Win32,59.97720866,611645b93f0840eae41426f5,611e07ecdcc96256ae8d5b80,611e757cec4ee9abf3eb2b8f,
,,,,,,,0,154,154,158,1,X, , , , ,,1500,1.5,,001,2021-08-19_16h15.53.104,natb3,2021.2.3,Win32,59.97720866,611645b93f0840eae41426f5,611e07ecdcc96256ae8d5b80,611e757cec4ee9abf3eb2b8f,
,,,,space,0.5034,,0,155,155,20,1,H, , , , ,space,1500,1.5,,001,2021-08-19_16h15.53.104,natb3,2021.2.3,Win32,59.97720866,611645b93f0840eae41426f5,611e07ecdcc96256ae8d5b80,611e757cec4ee9abf3eb2b8f,
,,,,space,0.4012,,0,156,156,261,1,T, , , , ,space,2000,2,,001,2021-08-19_16h15.53.104,natb3,2021.2.3,Win32,59.97720866,611645b93f0840eae41426f5,611e07ecdcc96256ae8d5b80,611e757cec4ee9abf3eb2b8f,
,,,,space,0.4599,,0,157,157,205,1,C, , , , ,space,2000,2,,001,2021-08-19_16h15.53.104,natb3,2021.2.3,Win32,59.97720866,611645b93f0840eae41426f5,611e07ecdcc96256ae8d5b80,611e757cec4ee9abf3eb2b8f,
,,,,space,0.5453,,0,158,158,220,1,U, , , , ,space,2500,2.5,,001,2021-08-19_16h15.53.104,natb3,2021.2.3,Win32,59.97720866,611645b93f0840eae41426f5,611e07ecdcc96256ae8d5b80,611e757cec4ee9abf3eb2b8f,
,,,,space,0.4685,,0,159,159,188,1,I, , , , ,space,2500,2.5,,001,2021-08-19_16h15.53.104,natb3,2021.2.3,Win32,59.97720866,611645b93f0840eae41426f5,611e07ecdcc96256ae8d5b80,611e757cec4ee9abf3eb2b8f,
,,,,space,0.4087,,0,160,160,198,1,H, , , , ,space,2500,2.5,,001,2021-08-19_16h15.53.104,natb3,2021.2.3,Win32,59.97720866,611645b93f0840eae41426f5,611e07ecdcc96256ae8d5b80,611e757cec4ee9abf3eb2b8f,
,,,,space,0.4895,,0,161,161,146,1,W, , , , ,space,1500,1.5,,001,2021-08-19_16h15.53.104,natb3,2021.2.3,Win32,59.97720866,611645b93f0840eae41426f5,611e07ecdcc96256ae8d5b80,611e757cec4ee9abf3eb2b8f,
,,,,space,0.5852,,0,162,162,131,1,G, , , , ,space,1500,1.5,,001,2021-08-19_16h15.53.104,natb3,2021.2.3,Win32,59.97720866,611645b93f0840eae41426f5,611e07ecdcc96256ae8d5b80,611e757cec4ee9abf3eb2b8f,
,,,,space,0.4115,,0,163,163,180,1,W, , , , ,space,2000,2,,001,2021-08-19_16h15.53.104,natb3,2021.2.3,Win32,59.97720866,611645b93f0840eae41426f5,611e07ecdcc96256ae8d5b80,611e757cec4ee9abf3eb2b8f,
,,,,space,0.4286,,0,164,164,224,1,W, , , , ,space,1500,1.5,,001,2021-08-19_16h15.53.104,natb3,2021.2.3,Win32,59.97720866,611645b93f0840eae41426f5,611e07ecdcc96256ae8d5b80,611e757cec4ee9abf3eb2b8f,
,,,,space,0.4283,,0,165,165,178,1,Q, , , , ,space,1500,1.5,,001,2021-08-19_16h15.53.104,natb3,2021.2.3,Win32,59.97720866,611645b93f0840eae41426f5,611e07ecdcc96256ae8d5b80,611e757cec4ee9abf3eb2b8f,
,,,,space,0.3681,,0,166,166,251,1,B, , , , ,space,1500,1.5,,001,2021-08-19_16h15.53.104,natb3,2021.2.3,Win32,59.97720866,611645b93f0840eae41426f5,611e07ecdcc96256ae8d5b80,611e757cec4ee9abf3eb2b8f,
,,,,space,0.4211,space,0,167,167,284,1,V, , , , ,space,2500,2.5,,001,2021-08-19_16h15.53.104,natb3,2021.2.3,Win32,59.97720866,611645b93f0840eae41426f5,611e07ecdcc96256ae8d5b80,611e757cec4ee9abf3eb2b8f,300.1172
,,,,space,0.5396,,0,168,168,257,1,W, , , , ,space,2000,2,,001,2021-08-19_16h15.53.104,natb3,2021.2.3,Win32,59.97720866,611645b93f0840eae41426f5,611e07ecdcc96256ae8d5b80,611e757cec4ee9abf3eb2b8f,
,,,,,,,0,169,169,43,1,X, ,6, ,2,,2500,2.5,,001,2021-08-19_16h15.53.104,natb3,2021.2.3,Win32,59.97720866,611645b93f0840eae41426f5,611e07ecdcc96256ae8d5b80,611e757cec4ee9abf3eb2b8f,
,,,,space,0.4853,,0,170,170,1,1,W, , , , ,space,2000,2,,001,2021-08-19_16h15.53.104,natb3,2021.2.3,Win32,59.97720866,611645b93f0840eae41426f5,611e07ecdcc96256ae8d5b80,611e757cec4ee9abf3eb2b8f,
,,,,space,0.4557,,0,171,171,217,1,T, , , , ,space,2500,2.5,,001,2021-08-19_16h15.53.104,natb3,2021.2.3,Win32,59.97720866,611645b93f0840eae41426f5,611e07ecdcc96256ae8d5b80,611e757cec4ee9abf3eb2b8f,
,,,,space,0.4676,,0,172,172,64,1,N, , , , ,space,2000,2,,001,2021-08-19_16h15.53.104,natb3,2021.2.3,Win32,59.97720866,611645b93f0840eae41426f5,611e07ecdcc96256ae8d5b80,611e757cec4ee9abf3eb2b8f,
,,,,space,0.3512,,0,173,173,63,1,B, , , , ,space,2000,2,,001,2021-08-19_16h15.53.104,natb3,2021.2.3,Win32,59.97720866,611645b93f0840eae41426f5,611e07ecdcc96256ae8d5b80,611e757cec4ee9abf3eb2b8f,
,,,,,,,0,174,174,15,1,X, , , , ,,1500,1.5,,001,2021-08-19_16h15.53.104,natb3,2021.2.3,Win32,59.97720866,611645b93f0840eae41426f5,611e07ecdcc96256ae8d5b80,611e757cec4ee9abf3eb2b8f,
,,,,space,0.407,,0,175,175,247,1,Z, , , , ,space,1500,1.5,,001,2021-08-19_16h15.53.104,natb3,2021.2.3,Win32,59.97720866,611645b93f0840eae41426f5,611e07ecdcc96256ae8d5b80,611e757cec4ee9abf3eb2b8f,
,,,,,,,0,176,176,35,1,X, , , , ,,2500,2.5,,001,2021-08-19_16h15.53.104,natb3,2021.2.3,Win32,59.97720866,611645b93f0840eae41426f5,611e07ecdcc96256ae8d5b80,611e757cec4ee9abf3eb2b8f,
,,,,space,0.4728,,0,177,177,167,1,K, , , , ,space,1500,1.5,,001,2021-08-19_16h15.53.104,natb3,2021.2.3,Win32,59.97720866,611645b93f0840eae41426f5,611e07ecdcc96256ae8d5b80,611e757cec4ee9abf3eb2b8f,
,,,,space,0.546,,0,178,178,276,1,H, , , , ,space,2000,2,,001,2021-08-19_16h15.53.104,natb3,2021.2.3,Win32,59.97720866,611645b93f0840eae41426f5,611e07ecdcc96256ae8d5b80,611e757cec4ee9abf3eb2b8f,
,,,,space,0.701,,0,179,179,258,1,E, , , , ,space,1500,1.5,,001,2021-08-19_16h15.53.104,natb3,2021.2.3,Win32,59.97720866,611645b93f0840eae41426f5,611e07ecdcc96256ae8d5b80,611e757cec4ee9abf3eb2b8f,
,,,,space,0.5532,,0,180,180,119,1,Y, , , , ,space,2500,2.5,,001,2021-08-19_16h15.53.104,natb3,2021.2.3,Win32,59.97720866,611645b93f0840eae41426f5,611e07ecdcc96256ae8d5b80,611e757cec4ee9abf3eb2b8f,
,,,,space,0.5283,,0,181,181,130,1,F, , , , ,space,2000,2,,001,2021-08-19_16h15.53.104,natb3,2021.2.3,Win32,59.97720866,611645b93f0840eae41426f5,611e07ecdcc96256ae8d5b80,611e757cec4ee9abf3eb2b8f,
,,,,space,0.4389,,0,182,182,319,1,V, , , , ,space,2000,2,,001,2021-08-19_16h15.53.104,natb3,2021.2.3,Win32,59.97720866,611645b93f0840eae41426f5,611e07ecdcc96256ae8d5b80,611e757cec4ee9abf3eb2b8f,
,,,,,,,0,183,183,291,1,X, , , , ,,2000,2,,001,2021-08-19_16h15.53.104,natb3,2021.2.3,Win32,59.97720866,611645b93f0840eae41426f5,611e07ecdcc96256ae8d5b80,611e757cec4ee9abf3eb2b8f,
,,,,,,,0,184,184,141,1,X,1, ,4,6,,1500,1.5,,001,2021-08-19_16h15.53.104,natb3,2021.2.3,Win32,59.97720866,611645b93f0840eae41426f5,611e07ecdcc96256ae8d5b80,611e757cec4ee9abf3eb2b8f,
,,,,space,0.4695,,0,185,185,320,1,B, , , , ,space,1500,1.5,,001,2021-08-19_16h15.53.104,natb3,2021.2.3,Win32,59.97720866,611645b93f0840eae41426f5,611e07ecdcc96256ae8d5b80,611e757cec4ee9abf3eb2b8f,
,,,,space,0.468,,0,186,186,147,1,E, , , , ,space,2000,2,,001,2021-08-19_16h15.53.104,natb3,2021.2.3,Win32,59.97720866,611645b93f0840eae41426f5,611e07ecdcc96256ae8d5b80,611e757cec4ee9abf3eb2b8f,
,,,,space,0.6019,,0,187,187,121,1,I, , , , ,space,2000,2,,001,2021-08-19_16h15.53.104,natb3,2021.2.3,Win32,59.97720866,611645b93f0840eae41426f5,611e07ecdcc96256ae8d5b80,611e757cec4ee9abf3eb2b8f,
,,,,,,,0,188,188,311,1,X,1,2,7,3,,2500,2.5,,001,2021-08-19_16h15.53.104,natb3,2021.2.3,Win32,59.97720866,611645b93f0840eae41426f5,611e07ecdcc96256ae8d5b80,611e757cec4ee9abf3eb2b8f,
,,,,space,0.9573,,0,189,189,104,1,E, , , , ,space,2000,2,,001,2021-08-19_16h15.53.104,natb3,2021.2.3,Win32,59.97720866,611645b93f0840eae41426f5,611e07ecdcc96256ae8d5b80,611e757cec4ee9abf3eb2b8f,
,,,,space,0.4848,,0,190,190,226,1,R, , , , ,space,2000,2,,001,2021-08-19_16h15.53.104,natb3,2021.2.3,Win32,59.97720866,611645b93f0840eae41426f5,611e07ecdcc96256ae8d5b80,611e757cec4ee9abf3eb2b8f,
,,,,space,0.5239,,0,191,191,73,1,Y, , , , ,space,2000,2,,001,2021-08-19_16h15.53.104,natb3,2021.2.3,Win32,59.97720866,611645b93f0840eae41426f5,611e07ecdcc96256ae8d5b80,611e757cec4ee9abf3eb2b8f,
,,,,space,0.5752,,0,192,192,242,1,H, , , , ,space,2500,2.5,,001,2021-08-19_16h15.53.104,natb3,2021.2.3,Win32,59.97720866,611645b93f0840eae41426f5,611e07ecdcc96256ae8d5b80,611e757cec4ee9abf3eb2b8f,
,,,,space,0.585,,0,193,193,294,1,T, , , , ,space,2000,2,,001,2021-08-19_16h15.53.104,natb3,2021.2.3,Win32,59.97720866,611645b93f0840eae41426f5,611e07ecdcc96256ae8d5b80,611e757cec4ee9abf3eb2b8f,
,,,,space,0.4735,,0,194,194,297,1,U, , , , ,space,2000,2,,001,2021-08-19_16h15.53.104,natb3,2021.2.3,Win32,59.97720866,611645b93f0840eae41426f5,611e07ecdcc96256ae8d5b80,611e757cec4ee9abf3eb2b8f,
,,,,,,,0,195,195,118,1,X, , , , ,,2000,2,,001,2021-08-19_16h15.53.104,natb3,2021.2.3,Win32,59.97720866,611645b93f0840eae41426f5,611e07ecdcc96256ae8d5b80,611e757cec4ee9abf3eb2b8f,
,,,,space,0.6113,,0,196,196,186,1,U, , , , ,space,2500,2.5,,001,2021-08-19_16h15.53.104,natb3,2021.2.3,Win32,59.97720866,611645b93f0840eae41426f5,611e07ecdcc96256ae8d5b80,611e757cec4ee9abf3eb2b8f,
,,,,space,0.6854,,0,197,197,181,1,E, , , , ,space,1500,1.5,,001,2021-08-19_16h15.53.104,natb3,2021.2.3,Win32,59.97720866,611645b93f0840eae41426f5,611e07ecdcc96256ae8d5b80,611e757cec4ee9abf3eb2b8f,
,,,,,,,0,198,198,69,1,X, , , , ,,1500,1.5,,001,2021-08-19_16h15.53.104,natb3,2021.2.3,Win32,59.97720866,611645b93f0840eae41426f5,611e07ecdcc96256ae8d5b80,611e757cec4ee9abf3eb2b8f,
,,,,space,0.6783,,0,199,199,326,1,W, , , , ,space,2000,2,,001,2021-08-19_16h15.53.104,natb3,2021.2.3,Win32,59.97720866,611645b93f0840eae41426f5,611e07ecdcc96256ae8d5b80,611e757cec4ee9abf3eb2b8f,
,,,,,,,0,200,200,30,1,N, , , , ,space,2500,2.5,,001,2021-08-19_16h15.53.104,natb3,2021.2.3,Win32,59.97720866,611645b93f0840eae41426f5,611e07ecdcc96256ae8d5b80,611e757cec4ee9abf3eb2b8f,
,,,,,,,0,201,201,271,1,X, , , , ,,2500,2.5,,001,2021-08-19_16h15.53.104,natb3,2021.2.3,Win32,59.97720866,611645b93f0840eae41426f5,611e07ecdcc96256ae8d5b80,611e757cec4ee9abf3eb2b8f,
,,,,space,0.6186,,0,202,202,306,1,D, , , , ,space,2000,2,,001,2021-08-19_16h15.53.104,natb3,2021.2.3,Win32,59.97720866,611645b93f0840eae41426f5,611e07ecdcc96256ae8d5b80,611e757cec4ee9abf3eb2b8f,
,,,,,,,0,203,203,211,1,X, , , , ,,2500,2.5,,001,2021-08-19_16h15.53.104,natb3,2021.2.3,Win32,59.97720866,611645b93f0840eae41426f5,611e07ecdcc96256ae8d5b80,611e757cec4ee9abf3eb2b8f,
,,,,,,,0,204,204,133,1,X, ,4, ,6,,2500,2.5,,001,2021-08-19_16h15.53.104,natb3,2021.2.3,Win32,59.97720866,611645b93f0840eae41426f5,611e07ecdcc96256ae8d5b80,611e757cec4ee9abf3eb2b8f,
,,,,space,0.5362,,0,205,205,151,1,Y, , , , ,space,2500,2.5,,001,2021-08-19_16h15.53.104,natb3,2021.2.3,Win32,59.97720866,611645b93f0840eae41426f5,611e07ecdcc96256ae8d5b80,611e757cec4ee9abf3eb2b8f,
,,,,,,,0,206,206,313,1,X, , , , ,,2500,2.5,,001,2021-08-19_16h15.53.104,natb3,2021.2.3,Win32,59.97720866,611645b93f0840eae41426f5,611e07ecdcc96256ae8d5b80,611e757cec4ee9abf3eb2b8f,
,,,,space,0.6546,,0,207,207,103,1,W, , , , ,space,2000,2,,001,2021-08-19_16h15.53.104,natb3,2021.2.3,Win32,59.97720866,611645b93f0840eae41426f5,611e07ecdcc96256ae8d5b80,611e757cec4ee9abf3eb2b8f,
,,,,,,,0,208,208,46,1,X, , , , ,,2000,2,,001,2021-08-19_16h15.53.104,natb3,2021.2.3,Win32,59.97720866,611645b93f0840eae41426f5,611e07ecdcc96256ae8d5b80,611e757cec4ee9abf3eb2b8f,
,,,,space,0.4511,,0,209,209,300,1,O, , , , ,space,2500,2.5,,001,2021-08-19_16h15.53.104,natb3,2021.2.3,Win32,59.97720866,611645b93f0840eae41426f5,611e07ecdcc96256ae8d5b80,611e757cec4ee9abf3eb2b8f,
,,,,,,,0,210,210,12,1,X, , , , ,,1500,1.5,,001,2021-08-19_16h15.53.104,natb3,2021.2.3,Win32,59.97720866,611645b93f0840eae41426f5,611e07ecdcc96256ae8d5b80,611e757cec4ee9abf3eb2b8f,
,,,,space,0.4374,,0,211,211,91,1,L, , , , ,space,2000,2,,001,2021-08-19_16h15.53.104,natb3,2021.2.3,Win32,59.97720866,611645b93f0840eae41426f5,611e07ecdcc96256ae8d5b80,611e757cec4ee9abf3eb2b8f,
,,,,space,0.4348,,0,212,212,94,1,C, , , , ,space,2000,2,,001,2021-08-19_16h15.53.104,natb3,2021.2.3,Win32,59.97720866,611645b93f0840eae41426f5,611e07ecdcc96256ae8d5b80,611e757cec4ee9abf3eb2b8f,
,,,,,,,0,213,213,78,1,X, , , , ,,2000,2,,001,2021-08-19_16h15.53.104,natb3,2021.2.3,Win32,59.97720866,611645b93f0840eae41426f5,611e07ecdcc96256ae8d5b80,611e757cec4ee9abf3eb2b8f,
,,,,space,0.4528,,0,214,214,210,1,M, , , , ,space,1500,1.5,,001,2021-08-19_16h15.53.104,natb3,2021.2.3,Win32,59.97720866,611645b93f0840eae41426f5,611e07ecdcc96256ae8d5b80,611e757cec4ee9abf3eb2b8f,
,,,,space,0.5065,,0,215,215,293,1,R, , , , ,space,2500,2.5,,001,2021-08-19_16h15.53.104,natb3,2021.2.3,Win32,59.97720866,611645b93f0840eae41426f5,611e07ecdcc96256ae8d5b80,611e757cec4ee9abf3eb2b8f,
,,,,space,0.4867,,0,216,216,254,1,M, , , , ,space,1500,1.5,,001,2021-08-19_16h15.53.104,natb3,2021.2.3,Win32,59.97720866,611645b93f0840eae41426f5,611e07ecdcc96256ae8d5b80,611e757cec4ee9abf3eb2b8f,
,,,,space,0.4958,,0,217,217,332,1,U, , , , ,space,2000,2,,001,2021-08-19_16h15.53.104,natb3,2021.2.3,Win32,59.97720866,611645b93f0840eae41426f5,611e07ecdcc96256ae8d5b80,611e757cec4ee9abf3eb2b8f,
,,,,space,0.5345,,0,218,218,154,1,I, , , , ,space,2500,2.5,,001,2021-08-19_16h15.53.104,natb3,2021.2.3,Win32,59.97720866,611645b93f0840eae41426f5,611e07ecdcc96256ae8d5b80,611e757cec4ee9abf3eb2b8f,
,,,,space,0.5071,,0,219,219,114,1,E, , , , ,space,2000,2,,001,2021-08-19_16h15.53.104,natb3,2021.2.3,Win32,59.97720866,611645b93f0840eae41426f5,611e07ecdcc96256ae8d5b80,611e757cec4ee9abf3eb2b8f,
,,,,,,,0,220,220,273,1,X, , , , ,,2000,2,,001,2021-08-19_16h15.53.104,natb3,2021.2.3,Win32,59.97720866,611645b93f0840eae41426f5,611e07ecdcc96256ae8d5b80,611e757cec4ee9abf3eb2b8f,
,,,,space,0.5516,,0,221,221,202,1,L, , , , ,space,2500,2.5,,001,2021-08-19_16h15.53.104,natb3,2021.2.3,Win32,59.97720866,611645b93f0840eae41426f5,611e07ecdcc96256ae8d5b80,611e757cec4ee9abf3eb2b8f,
,,,,space,0.5349,,0,222,222,17,1,F, , , , ,space,2500,2.5,,001,2021-08-19_16h15.53.104,natb3,2021.2.3,Win32,59.97720866,611645b93f0840eae41426f5,611e07ecdcc96256ae8d5b80,611e757cec4ee9abf3eb2b8f,
,,,,space,0.6884,,0,223,223,29,1,B, , , , ,space,1500,1.5,,001,2021-08-19_16h15.53.104,natb3,2021.2.3,Win32,59.97720866,611645b93f0840eae41426f5,611e07ecdcc96256ae8d5b80,611e757cec4ee9abf3eb2b8f,
,,,,space,0.7578,,0,224,224,280,1,L, , , , ,space,1500,1.5,,001,2021-08-19_16h15.53.104,natb3,2021.2.3,Win32,59.97720866,611645b93f0840eae41426f5,611e07ecdcc96256ae8d5b80,611e757cec4ee9abf3eb2b8f,
,,,,space,0.6755,,0,225,225,265,1,I, , , , ,space,2000,2,,001,2021-08-19_16h15.53.104,natb3,2021.2.3,Win32,59.97720866,611645b93f0840eae41426f5,611e07ecdcc96256ae8d5b80,611e757cec4ee9abf3eb2b8f,
,,,,,,,0,226,226,96,1,X, , , , ,,1500,1.5,,001,2021-08-19_16h15.53.104,natb3,2021.2.3,Win32,59.97720866,611645b93f0840eae41426f5,611e07ecdcc96256ae8d5b80,611e757cec4ee9abf3eb2b8f,
,,,,space,0.6706,,0,227,227,264,1,U, , , , ,space,2000,2,,001,2021-08-19_16h15.53.104,natb3,2021.2.3,Win32,59.97720866,611645b93f0840eae41426f5,611e07ecdcc96256ae8d5b80,611e757cec4ee9abf3eb2b8f,
,,,,,,,0,228,228,329,1,X,3,4, ,2,,2500,2.5,,001,2021-08-19_16h15.53.104,natb3,2021.2.3,Win32,59.97720866,611645b93f0840eae41426f5,611e07ecdcc96256ae8d5b80,611e757cec4ee9abf3eb2b8f,
,,,,space,0.5557,,0,229,229,164,1,H, , , , ,space,2500,2.5,,001,2021-08-19_16h15.53.104,natb3,2021.2.3,Win32,59.97720866,611645b93f0840eae41426f5,611e07ecdcc96256ae8d5b80,611e757cec4ee9abf3eb2b8f,
,,,,space,0.6096,,0,230,230,134,1,J, , , , ,space,2000,2,,001,2021-08-19_16h15.53.104,natb3,2021.2.3,Win32,59.97720866,611645b93f0840eae41426f5,611e07ecdcc96256ae8d5b80,611e757cec4ee9abf3eb2b8f,
,,,,space,0.7026,,0,231,231,176,1,N, , , , ,space,1500,1.5,,001,2021-08-19_16h15.53.104,natb3,2021.2.3,Win32,59.97720866,611645b93f0840eae41426f5,611e07ecdcc96256ae8d5b80,611e757cec4ee9abf3eb2b8f,
,,,,space,0.6184,,0,232,232,83,1,D, , , , ,space,2000,2,,001,2021-08-19_16h15.53.104,natb3,2021.2.3,Win32,59.97720866,611645b93f0840eae41426f5,611e07ecdcc96256ae8d5b80,611e757cec4ee9abf3eb2b8f,
,,,,space,0.769,,0,233,233,223,1,Q, , , , ,space,2000,2,,001,2021-08-19_16h15.53.104,natb3,2021.2.3,Win32,59.97720866,611645b93f0840eae41426f5,611e07ecdcc96256ae8d5b80,611e757cec4ee9abf3eb2b8f,
,,,,space,0.5227,,0,234,234,267,1,P, , , , ,space,2000,2,,001,2021-08-19_16h15.53.104,natb3,2021.2.3,Win32,59.97720866,611645b93f0840eae41426f5,611e07ecdcc96256ae8d5b80,611e757cec4ee9abf3eb2b8f,
,,,,space,0.4547,,0,235,235,120,1,U, , , , ,space,1500,1.5,,001,2021-08-19_16h15.53.104,natb3,2021.2.3,Win32,59.97720866,611645b93f0840eae41426f5,611e07ecdcc96256ae8d5b80,611e757cec4ee9abf3eb2b8f,
,,,,,,,0,236,236,322,1,X, , ,1,6,,2000,2,,001,2021-08-19_16h15.53.104,natb3,2021.2.3,Win32,59.97720866,611645b93f0840eae41426f5,611e07ecdcc96256ae8d5b80,611e757cec4ee9abf3eb2b8f,
,,,,,,,0,237,237,175,1,X,7, ,4,2,,1500,1.5,,001,2021-08-19_16h15.53.104,natb3,2021.2.3,Win32,59.97720866,611645b93f0840eae41426f5,611e07ecdcc96256ae8d5b80,611e757cec4ee9abf3eb2b8f,
,,,,,,,0,238,238,7,1,X, , , , ,,1500,1.5,,001,2021-08-19_16h15.53.104,natb3,2021.2.3,Win32,59.97720866,611645b93f0840eae41426f5,611e07ecdcc96256ae8d5b80,611e757cec4ee9abf3eb2b8f,
,,,,space,0.6924,,0,239,239,88,1,J, , , , ,space,2500,2.5,,001,2021-08-19_16h15.53.104,natb3,2021.2.3,Win32,59.97720866,611645b93f0840eae41426f5,611e07ecdcc96256ae8d5b80,611e757cec4ee9abf3eb2b8f,
,,,,space,0.6354,,0,240,240,123,1,O, , , , ,space,1500,1.5,,001,2021-08-19_16h15.53.104,natb3,2021.2.3,Win32,59.97720866,611645b93f0840eae41426f5,611e07ecdcc96256ae8d5b80,611e757cec4ee9abf3eb2b8f,
,,,,space,0.572,,0,241,241,209,1,N, , , , ,space,2000,2,,001,2021-08-19_16h15.53.104,natb3,2021.2.3,Win32,59.97720866,611645b93f0840eae41426f5,611e07ecdcc96256ae8d5b80,611e757cec4ee9abf3eb2b8f,
,,,,space,0.8218,,0,242,242,65,1,M, , , , ,space,1500,1.5,,001,2021-08-19_16h15.53.104,natb3,2021.2.3,Win32,59.97720866,611645b93f0840eae41426f5,611e07ecdcc96256ae8d5b80,611e757cec4ee9abf3eb2b8f,
,,,,space,0.8688,,0,243,243,22,1,K, , , , ,space,2000,2,,001,2021-08-19_16h15.53.104,natb3,2021.2.3,Win32,59.97720866,611645b93f0840eae41426f5,611e07ecdcc96256ae8d5b80,611e757cec4ee9abf3eb2b8f,
,,,,space,0.6066,,0,244,244,50,1,D, , , , ,space,1500,1.5,,001,2021-08-19_16h15.53.104,natb3,2021.2.3,Win32,59.97720866,611645b93f0840eae41426f5,611e07ecdcc96256ae8d5b80,611e757cec4ee9abf3eb2b8f,
,,,,space,0.8187,,0,245,245,192,1,A, , , , ,space,2000,2,,001,2021-08-19_16h15.53.104,natb3,2021.2.3,Win32,59.97720866,611645b93f0840eae41426f5,611e07ecdcc96256ae8d5b80,611e757cec4ee9abf3eb2b8f,
,,,,space,0.5621,,0,246,246,115,1,R, , , , ,space,1500,1.5,,001,2021-08-19_16h15.53.104,natb3,2021.2.3,Win32,59.97720866,611645b93f0840eae41426f5,611e07ecdcc96256ae8d5b80,611e757cec4ee9abf3eb2b8f,
,,,,space,0.4689,,0,247,247,240,1,F, , , , ,space,2500,2.5,,001,2021-08-19_16h15.53.104,natb3,2021.2.3,Win32,59.97720866,611645b93f0840eae41426f5,611e07ecdcc96256ae8d5b80,611e757cec4ee9abf3eb2b8f,
,,,,space,0.4408,,0,248,248,163,1,G, , , , ,space,2500,2.5,,001,2021-08-19_16h15.53.104,natb3,2021.2.3,Win32,59.97720866,611645b93f0840eae41426f5,611e07ecdcc96256ae8d5b80,611e757cec4ee9abf3eb2b8f,
,,,,space,0.4194,,0,249,249,111,1,O, , , , ,space,2000,2,,001,2021-08-19_16h15.53.104,natb3,2021.2.3,Win32,59.97720866,611645b93f0840eae41426f5,611e07ecdcc96256ae8d5b80,611e757cec4ee9abf3eb2b8f,
,,,,space,0.4007,,0,250,250,222,1,O, , , , ,space,2000,2,,001,2021-08-19_16h15.53.104,natb3,2021.2.3,Win32,59.97720866,611645b93f0840eae41426f5,611e07ecdcc96256ae8d5b80,611e757cec4ee9abf3eb2b8f,
,,,,space,0.4517,,0,251,251,160,1,D, , , , ,space,1500,1.5,,001,2021-08-19_16h15.53.104,natb3,2021.2.3,Win32,59.97720866,611645b93f0840eae41426f5,611e07ecdcc96256ae8d5b80,611e757cec4ee9abf3eb2b8f,
,,,,,,,0,252,252,287,1,X, ,2, ,9,,2000,2,,001,2021-08-19_16h15.53.104,natb3,2021.2.3,Win32,59.97720866,611645b93f0840eae41426f5,611e07ecdcc96256ae8d5b80,611e757cec4ee9abf3eb2b8f,
,,,,space,0.4207,,0,253,253,227,1,T, , , , ,space,1500,1.5,,001,2021-08-19_16h15.53.104,natb3,2021.2.3,Win32,59.97720866,611645b93f0840eae41426f5,611e07ecdcc96256ae8d5b80,611e757cec4ee9abf3eb2b8f,
,,,,space,0.5021,,0,254,254,334,1,O, , , , ,space,1500,1.5,,001,2021-08-19_16h15.53.104,natb3,2021.2.3,Win32,59.97720866,611645b93f0840eae41426f5,611e07ecdcc96256ae8d5b80,611e757cec4ee9abf3eb2b8f,
,,,,space,0.5246,,0,255,255,76,1,I, , , , ,space,2000,2,,001,2021-08-19_16h15.53.104,natb3,2021.2.3,Win32,59.97720866,611645b93f0840eae41426f5,611e07ecdcc96256ae8d5b80,611e757cec4ee9abf3eb2b8f,
,,,,,,,0,256,256,263,1,X,4, ,6, ,,1500,1.5,,001,2021-08-19_16h15.53.104,natb3,2021.2.3,Win32,59.97720866,611645b93f0840eae41426f5,611e07ecdcc96256ae8d5b80,611e757cec4ee9abf3eb2b8f,
,,,,space,0.4134,,0,257,257,249,1,C, , , , ,space,2000,2,,001,2021-08-19_16h15.53.104,natb3,2021.2.3,Win32,59.97720866,611645b93f0840eae41426f5,611e07ecdcc96256ae8d5b80,611e757cec4ee9abf3eb2b8f,
,,,,space,0.6384,,0,258,258,308,1,G, , , , ,space,1500,1.5,,001,2021-08-19_16h15.53.104,natb3,2021.2.3,Win32,59.97720866,611645b93f0840eae41426f5,611e07ecdcc96256ae8d5b80,611e757cec4ee9abf3eb2b8f,
,,,,,,,0,259,259,335,1,P,,,,,space,1500,1.5,,001,2021-08-19_16h15.53.104,natb3,2021.2.3,Win32,59.97720866,611645b93f0840eae41426f5,611e07ecdcc96256ae8d5b80,611e757cec4ee9abf3eb2b8f,
,,,,space,0.7255,,0,260,260,105,1,R, , , , ,space,2500,2.5,,001,2021-08-19_16h15.53.104,natb3,2021.2.3,Win32,59.97720866,611645b93f0840eae41426f5,611e07ecdcc96256ae8d5b80,611e757cec4ee9abf3eb2b8f,
,,,,space,0.4856,,0,261,261,260,1,R, , , , ,space,2000,2,,001,2021-08-19_16h15.53.104,natb3,2021.2.3,Win32,59.97720866,611645b93f0840eae41426f5,611e07ecdcc96256ae8d5b80,611e757cec4ee9abf3eb2b8f,
,,,,space,0.4746,,0,262,262,157,1,A, , , , ,space,2500,2.5,,001,2021-08-19_16h15.53.104,natb3,2021.2.3,Win32,59.97720866,611645b93f0840eae41426f5,611e07ecdcc96256ae8d5b80,611e757cec4ee9abf3eb2b8f,
,,,,space,0.4358,,0,263,263,185,1,Y, , , , ,space,2500,2.5,,001,2021-08-19_16h15.53.104,natb3,2021.2.3,Win32,59.97720866,611645b93f0840eae41426f5,611e07ecdcc96256ae8d5b80,611e757cec4ee9abf3eb2b8f,
,,,,space,0.4421,,0,264,264,302,1,X, , , , ,,2000,2,,001,2021-08-19_16h15.53.104,natb3,2021.2.3,Win32,59.97720866,611645b93f0840eae41426f5,611e07ecdcc96256ae8d5b80,611e757cec4ee9abf3eb2b8f,
,,,,space,0.4738,,0,265,265,327,1,E, , , , ,space,1500,1.5,,001,2021-08-19_16h15.53.104,natb3,2021.2.3,Win32,59.97720866,611645b93f0840eae41426f5,611e07ecdcc96256ae8d5b80,611e757cec4ee9abf3eb2b8f,
,,,,,,,0,266,266,248,1,X, ,1,5, ,,1500,1.5,,001,2021-08-19_16h15.53.104,natb3,2021.2.3,Win32,59.97720866,611645b93f0840eae41426f5,611e07ecdcc96256ae8d5b80,611e757cec4ee9abf3eb2b8f,
,,,,space,0.4014,,0,267,267,301,1,P, , , , ,space,1500,1.5,,001,2021-08-19_16h15.53.104,natb3,2021.2.3,Win32,59.97720866,611645b93f0840eae41426f5,611e07ecdcc96256ae8d5b80,611e757cec4ee9abf3eb2b8f,
,,,,space,0.4346,,0,268,268,283,1,C, , , , ,space,1500,1.5,,001,2021-08-19_16h15.53.104,natb3,2021.2.3,Win32,59.97720866,611645b93f0840eae41426f5,611e07ecdcc96256ae8d5b80,611e757cec4ee9abf3eb2b8f,
,,,,space,0.4605,,0,269,269,124,1,P, , , , ,space,2000,2,,001,2021-08-19_16h15.53.104,natb3,2021.2.3,Win32,59.97720866,611645b93f0840eae41426f5,611e07ecdcc96256ae8d5b80,611e757cec4ee9abf3eb2b8f,
,,,,,,,0,270,270,239,1,X, , , , ,,2000,2,,001,2021-08-19_16h15.53.104,natb3,2021.2.3,Win32,59.97720866,611645b93f0840eae41426f5,611e07ecdcc96256ae8d5b80,611e757cec4ee9abf3eb2b8f,
,,,,space,0.4687,,0,271,271,333,1,I, , , , ,space,1500,1.5,,001,2021-08-19_16h15.53.104,natb3,2021.2.3,Win32,59.97720866,611645b93f0840eae41426f5,611e07ecdcc96256ae8d5b80,611e757cec4ee9abf3eb2b8f,
,,,,,,,0,272,272,18,1,X, ,2,5,8,,2500,2.5,,001,2021-08-19_16h15.53.104,natb3,2021.2.3,Win32,59.97720866,611645b93f0840eae41426f5,611e07ecdcc96256ae8d5b80,611e757cec4ee9abf3eb2b8f,
,,,,space,0.4515,,0,273,273,16,1,D, , , , ,space,1500,1.5,,001,2021-08-19_16h15.53.104,natb3,2021.2.3,Win32,59.97720866,611645b93f0840eae41426f5,611e07ecdcc96256ae8d5b80,611e757cec4ee9abf3eb2b8f,
,,,,space,0.4935,,0,274,274,49,1,S, , , , ,space,1500,1.5,,001,2021-08-19_16h15.53.104,natb3,2021.2.3,Win32,59.97720866,611645b93f0840eae41426f5,611e07ecdcc96256ae8d5b80,611e757cec4ee9abf3eb2b8f,
,,,,,,,0,275,275,191,1,X,1, ,3,4,,2500,2.5,,001,2021-08-19_16h15.53.104,natb3,2021.2.3,Win32,59.97720866,611645b93f0840eae41426f5,611e07ecdcc96256ae8d5b80,611e757cec4ee9abf3eb2b8f,
,,,,,,,0,276,276,179,1,X, ,9, ,2,,1500,1.5,,001,2021-08-19_16h15.53.104,natb3,2021.2.3,Win32,59.97720866,611645b93f0840eae41426f5,611e07ecdcc96256ae8d5b80,611e757cec4ee9abf3eb2b8f,
,,,,,,,0,277,277,54,1,X, , , , ,,2000,2,,001,2021-08-19_16h15.53.104,natb3,2021.2.3,Win32,59.97720866,611645b93f0840eae41426f5,611e07ecdcc96256ae8d5b80,611e757cec4ee9abf3eb2b8f,
,,,,space,0.9353,,0,278,278,250,1,V, , , , ,space,2000,2,,001,2021-08-19_16h15.53.104,natb3,2021.2.3,Win32,59.97720866,611645b93f0840eae41426f5,611e07ecdcc96256ae8d5b80,611e757cec4ee9abf3eb2b8f,
,,,,space,0.4597,,0,279,279,214,1,W, , , , ,space,2000,2,,001,2021-08-19_16h15.53.104,natb3,2021.2.3,Win32,59.97720866,611645b93f0840eae41426f5,611e07ecdcc96256ae8d5b80,611e757cec4ee9abf3eb2b8f,
,,,,space,0.4176,,0,280,280,231,1,I, , , , ,space,2500,2.5,,001,2021-08-19_16h15.53.104,natb3,2021.2.3,Win32,59.97720866,611645b93f0840eae41426f5,611e07ecdcc96256ae8d5b80,611e757cec4ee9abf3eb2b8f,
,,,,space,0.537,,0,281,281,41,1,Y, , , , ,space,2500,2.5,,001,2021-08-19_16h15.53.104,natb3,2021.2.3,Win32,59.97720866,611645b93f0840eae41426f5,611e07ecdcc96256ae8d5b80,611e757cec4ee9abf3eb2b8f,
,,,,space,0.4909,,0,282,282,232,1,O, , , , ,space,2500,2.5,,001,2021-08-19_16h15.53.104,natb3,2021.2.3,Win32,59.97720866,611645b93f0840eae41426f5,611e07ecdcc96256ae8d5b80,611e757cec4ee9abf3eb2b8f,
,,,,space,0.6349,,0,283,283,270,1,S, , , , ,space,1500,1.5,,001,2021-08-19_16h15.53.104,natb3,2021.2.3,Win32,59.97720866,611645b93f0840eae41426f5,611e07ecdcc96256ae8d5b80,611e757cec4ee9abf3eb2b8f,
,,,,space,0.3945,,0,284,284,170,1,Z, , , , ,space,2000,2,,001,2021-08-19_16h15.53.104,natb3,2021.2.3,Win32,59.97720866,611645b93f0840eae41426f5,611e07ecdcc96256ae8d5b80,611e757cec4ee9abf3eb2b8f,
,,,,space,0.4717,,0,285,285,228,1,Y, , , , ,space,2000,2,,001,2021-08-19_16h15.53.104,natb3,2021.2.3,Win32,59.97720866,611645b93f0840eae41426f5,611e07ecdcc96256ae8d5b80,611e757cec4ee9abf3eb2b8f,
,,,,space,0.5683,,0,286,286,266,1,O, , , , ,space,1500,1.5,,001,2021-08-19_16h15.53.104,natb3,2021.2.3,Win32,59.97720866,611645b93f0840eae41426f5,611e07ecdcc96256ae8d5b80,611e757cec4ee9abf3eb2b8f,
,,,,space,0.4351,,0,287,287,183,1,R, , , , ,space,1500,1.5,,001,2021-08-19_16h15.53.104,natb3,2021.2.3,Win32,59.97720866,611645b93f0840eae41426f5,611e07ecdcc96256ae8d5b80,611e757cec4ee9abf3eb2b8f,
,,,,,,,0,288,288,33,1,X, , , , ,,1500,1.5,,001,2021-08-19_16h15.53.104,natb3,2021.2.3,Win32,59.97720866,611645b93f0840eae41426f5,611e07ecdcc96256ae8d5b80,611e757cec4ee9abf3eb2b8f,
,,,,space,0.404,,0,289,289,90,1,K, , , , ,space,2000,2,,001,2021-08-19_16h15.53.104,natb3,2021.2.3,Win32,59.97720866,611645b93f0840eae41426f5,611e07ecdcc96256ae8d5b80,611e757cec4ee9abf3eb2b8f,
,,,,,,,0,290,290,153,1,X,4,7, ,6,,2000,2,,001,2021-08-19_16h15.53.104,natb3,2021.2.3,Win32,59.97720866,611645b93f0840eae41426f5,611e07ecdcc96256ae8d5b80,611e757cec4ee9abf3eb2b8f,
,,,,space,0.5607,,0,291,291,2,1,E, , , , ,space,2500,2.5,,001,2021-08-19_16h15.53.104,natb3,2021.2.3,Win32,59.97720866,611645b93f0840eae41426f5,611e07ecdcc96256ae8d5b80,611e757cec4ee9abf3eb2b8f,
,,,,space,0.6517,,0,292,292,316,1,Z, , , , ,space,1500,1.5,,001,2021-08-19_16h15.53.104,natb3,2021.2.3,Win32,59.97720866,611645b93f0840eae41426f5,611e07ecdcc96256ae8d5b80,611e757cec4ee9abf3eb2b8f,
,,,,space,0.4407,,0,293,293,150,1,T, , , , ,space,2500,2.5,,001,2021-08-19_16h15.53.104,natb3,2021.2.3,Win32,59.97720866,611645b93f0840eae41426f5,611e07ecdcc96256ae8d5b80,611e757cec4ee9abf3eb2b8f,
,,,,,,,0,294,294,116,1,X, , , , ,,2000,2,,001,2021-08-19_16h15.53.104,natb3,2021.2.3,Win32,59.97720866,611645b93f0840eae41426f5,611e07ecdcc96256ae8d5b80,611e757cec4ee9abf3eb2b8f,
,,,,space,0.5211,,0,295,295,100,1,M, , , , ,space,2000,2,,001,2021-08-19_16h15.53.104,natb3,2021.2.3,Win32,59.97720866,611645b93f0840eae41426f5,611e07ecdcc96256ae8d5b80,611e757cec4ee9abf3eb2b8f,
,,,,space,0.5186,,0,296,296,106,1,T, , , , ,space,1500,1.5,,001,2021-08-19_16h15.53.104,natb3,2021.2.3,Win32,59.97720866,611645b93f0840eae41426f5,611e07ecdcc96256ae8d5b80,611e757cec4ee9abf3eb2b8f,
,,,,space,0.5398,,0,297,297,317,1,C, , , , ,space,2000,2,,001,2021-08-19_16h15.53.104,natb3,2021.2.3,Win32,59.97720866,611645b93f0840eae41426f5,611e07ecdcc96256ae8d5b80,611e757cec4ee9abf3eb2b8f,
,,,,space,0.5178,,0,298,298,139,1,V, , , , ,space,2000,2,,001,2021-08-19_16h15.53.104,natb3,2021.2.3,Win32,59.97720866,611645b93f0840eae41426f5,611e07ecdcc96256ae8d5b80,611e757cec4ee9abf3eb2b8f,
,,,,space,0.5061,,0,299,299,206,1,V, , , , ,space,2000,2,,001,2021-08-19_16h15.53.104,natb3,2021.2.3,Win32,59.97720866,611645b93f0840eae41426f5,611e07ecdcc96256ae8d5b80,611e757cec4ee9abf3eb2b8f,
,,,,,,,0,300,300,233,1,X, ,2, ,5,,1500,1.5,,001,2021-08-19_16h15.53.104,natb3,2021.2.3,Win32,59.97720866,611645b93f0840eae41426f5,611e07ecdcc96256ae8d5b80,611e757cec4ee9abf3eb2b8f,
,,,,space,0.5566,,0,301,301,303,1,A, , , , ,space,2000,2,,001,2021-08-19_16h15.53.104,natb3,2021.2.3,Win32,59.97720866,611645b93f0840eae41426f5,611e07ecdcc96256ae8d5b80,611e757cec4ee9abf3eb2b8f,
,,,,space,0.7022,,0,302,302,137,1,C, , , , ,space,2500,2.5,,001,2021-08-19_16h15.53.104,natb3,2021.2.3,Win32,59.97720866,611645b93f0840eae41426f5,611e07ecdcc96256ae8d5b80,611e757cec4ee9abf3eb2b8f,
,,,,,,,0,303,303,269,1,A, , , , ,space,2500,2.5,,001,2021-08-19_16h15.53.104,natb3,2021.2.3,Win32,59.97720866,611645b93f0840eae41426f5,611e07ecdcc96256ae8d5b80,611e757cec4ee9abf3eb2b8f,
,,,,,,,0,304,304,57,1,K, , , , ,space,2500,2.5,,001,2021-08-19_16h15.53.104,natb3,2021.2.3,Win32,59.97720866,611645b93f0840eae41426f5,611e07ecdcc96256ae8d5b80,611e757cec4ee9abf3eb2b8f,
,,,,space,0.5864,,0,305,305,142,1,N, , , , ,space,2500,2.5,,001,2021-08-19_16h15.53.104,natb3,2021.2.3,Win32,59.97720866,611645b93f0840eae41426f5,611e07ecdcc96256ae8d5b80,611e757cec4ee9abf3eb2b8f,
,,,,space,0.3682,,0,306,306,10,1,O, , , , ,space,2000,2,,001,2021-08-19_16h15.53.104,natb3,2021.2.3,Win32,59.97720866,611645b93f0840eae41426f5,611e07ecdcc96256ae8d5b80,611e757cec4ee9abf3eb2b8f,
,,,,space,0.4172,,0,307,307,75,1,U, , , , ,space,1500,1.5,,001,2021-08-19_16h15.53.104,natb3,2021.2.3,Win32,59.97720866,611645b93f0840eae41426f5,611e07ecdcc96256ae8d5b80,611e757cec4ee9abf3eb2b8f,
,,,,,,,0,308,308,252,1,X,3, ,6,9,,2000,2,,001,2021-08-19_16h15.53.104,natb3,2021.2.3,Win32,59.97720866,611645b93f0840eae41426f5,611e07ecdcc96256ae8d5b80,611e757cec4ee9abf3eb2b8f,
,,,,space,0.4538,,0,309,309,109,1,U, , , , ,space,1500,1.5,,001,2021-08-19_16h15.53.104,natb3,2021.2.3,Win32,59.97720866,611645b93f0840eae41426f5,611e07ecdcc96256ae8d5b80,611e757cec4ee9abf3eb2b8f,
,,,,space,0.4516,,0,310,310,67,1,Q, , , , ,space,2000,2,,001,2021-08-19_16h15.53.104,natb3,2021.2.3,Win32,59.97720866,611645b93f0840eae41426f5,611e07ecdcc96256ae8d5b80,611e757cec4ee9abf3eb2b8f,
,,,,space,0.4542,,0,311,311,44,1,I, , , , ,space,2500,2.5,,001,2021-08-19_16h15.53.104,natb3,2021.2.3,Win32,59.97720866,611645b93f0840eae41426f5,611e07ecdcc96256ae8d5b80,611e757cec4ee9abf3eb2b8f,
,,,,,,,0,312,312,145,1,X, , , , ,,2000,2,,001,2021-08-19_16h15.53.104,natb3,2021.2.3,Win32,59.97720866,611645b93f0840eae41426f5,611e07ecdcc96256ae8d5b80,611e757cec4ee9abf3eb2b8f,
,,,,,,,0,313,313,74,1,X, ,4,3,2,,1500,1.5,,001,2021-08-19_16h15.53.104,natb3,2021.2.3,Win32,59.97720866,611645b93f0840eae41426f5,611e07ecdcc96256ae8d5b80,611e757cec4ee9abf3eb2b8f,
,,,,,,,0,314,314,187,1,X, ,3,7,4,,1500,1.5,,001,2021-08-19_16h15.53.104,natb3,2021.2.3,Win32,59.97720866,611645b93f0840eae41426f5,611e07ecdcc96256ae8d5b80,611e757cec4ee9abf3eb2b8f,
,,,,space,0.4886,,0,315,315,234,1,P, , , , ,space,2000,2,,001,2021-08-19_16h15.53.104,natb3,2021.2.3,Win32,59.97720866,611645b93f0840eae41426f5,611e07ecdcc96256ae8d5b80,611e757cec4ee9abf3eb2b8f,
,,,,,,,0,316,316,31,1,X, , , , ,,1500,1.5,,001,2021-08-19_16h15.53.104,natb3,2021.2.3,Win32,59.97720866,611645b93f0840eae41426f5,611e07ecdcc96256ae8d5b80,611e757cec4ee9abf3eb2b8f,
,,,,,,,0,317,317,98,1,X, , , , ,,2500,2.5,,001,2021-08-19_16h15.53.104,natb3,2021.2.3,Win32,59.97720866,611645b93f0840eae41426f5,611e07ecdcc96256ae8d5b80,611e757cec4ee9abf3eb2b8f,
,,,,,,,0,318,318,66,1,X, ,4,7, ,,2000,2,,001,2021-08-19_16h15.53.104,natb3,2021.2.3,Win32,59.97720866,611645b93f0840eae41426f5,611e07ecdcc96256ae8d5b80,611e757cec4ee9abf3eb2b8f,
,,,,space,0.597,,0,319,319,288,1,M, , , , ,space,1500,1.5,,001,2021-08-19_16h15.53.104,natb3,2021.2.3,Win32,59.97720866,611645b93f0840eae41426f5,611e07ecdcc96256ae8d5b80,611e757cec4ee9abf3eb2b8f,
,,,,space,0.5421,,0,320,320,189,1,O, , , , ,space,1500,1.5,,001,2021-08-19_16h15.53.104,natb3,2021.2.3,Win32,59.97720866,611645b93f0840eae41426f5,611e07ecdcc96256ae8d5b80,611e757cec4ee9abf3eb2b8f,
,,,,space,0.5677,,0,321,321,190,1,P, , , , ,space,2000,2,,001,2021-08-19_16h15.53.104,natb3,2021.2.3,Win32,59.97720866,611645b93f0840eae41426f5,611e07ecdcc96256ae8d5b80,611e757cec4ee9abf3eb2b8f,
,,,,space,0.8746,,0,322,322,219,1,Y, , , , ,space,2000,2,,001,2021-08-19_16h15.53.104,natb3,2021.2.3,Win32,59.97720866,611645b93f0840eae41426f5,611e07ecdcc96256ae8d5b80,611e757cec4ee9abf3eb2b8f,
,,,,space,0.7284,,0,323,323,182,1,X, , , , ,,1500,1.5,,001,2021-08-19_16h15.53.104,natb3,2021.2.3,Win32,59.97720866,611645b93f0840eae41426f5,611e07ecdcc96256ae8d5b80,611e757cec4ee9abf3eb2b8f,
,,,,space,0.5955,,0,324,324,140,1,B, , , , ,space,2500,2.5,,001,2021-08-19_16h15.53.104,natb3,2021.2.3,Win32,59.97720866,611645b93f0840eae41426f5,611e07ecdcc96256ae8d5b80,611e757cec4ee9abf3eb2b8f,
,,,,space,0.5086,,0,325,325,318,1,X, , , , ,,1500,1.5,,001,2021-08-19_16h15.53.104,natb3,2021.2.3,Win32,59.97720866,611645b93f0840eae41426f5,611e07ecdcc96256ae8d5b80,611e757cec4ee9abf3eb2b8f,
,,,,space,0.441,,0,326,326,72,1,T, , , , ,space,1500,1.5,,001,2021-08-19_16h15.53.104,natb3,2021.2.3,Win32,59.97720866,611645b93f0840eae41426f5,611e07ecdcc96256ae8d5b80,611e757cec4ee9abf3eb2b8f,
,,,,space,0.5802,,0,327,327,194,1,D, , , , ,space,2000,2,,001,2021-08-19_16h15.53.104,natb3,2021.2.3,Win32,59.97720866,611645b93f0840eae41426f5,611e07ecdcc96256ae8d5b80,611e757cec4ee9abf3eb2b8f,
,,,,space,0.4782,,0,328,328,285,1,B, , , , ,space,1500,1.5,,001,2021-08-19_16h15.53.104,natb3,2021.2.3,Win32,59.97720866,611645b93f0840eae41426f5,611e07ecdcc96256ae8d5b80,611e757cec4ee9abf3eb2b8f,
,,,,space,0.404,,0,329,329,203,1,X, , , , ,,2500,2.5,,001,2021-08-19_16h15.53.104,natb3,2021.2.3,Win32,59.97720866,611645b93f0840eae41426f5,611e07ecdcc96256ae8d5b80,611e757cec4ee9abf3eb2b8f,
,,,,space,0.5555,,0,330,330,315,1,X, , , , ,,2500,2.5,,001,2021-08-19_16h15.53.104,natb3,2021.2.3,Win32,59.97720866,611645b93f0840eae41426f5,611e07ecdcc96256ae8d5b80,611e757cec4ee9abf3eb2b8f,
,,,,space,0.5186,,0,331,331,52,1,F, , , , ,space,1500,1.5,,001,2021-08-19_16h15.53.104,natb3,2021.2.3,Win32,59.97720866,611645b93f0840eae41426f5,611e07ecdcc96256ae8d5b80,611e757cec4ee9abf3eb2b8f,
,,,,space,0.5009,,0,332,332,196,1,F, , , , ,space,1500,1.5,,001,2021-08-19_16h15.53.104,natb3,2021.2.3,Win32,59.97720866,611645b93f0840eae41426f5,611e07ecdcc96256ae8d5b80,611e757cec4ee9abf3eb2b8f,
,,,,space,0.4592,,0,333,333,225,1,E, , , , ,space,2000,2,,001,2021-08-19_16h15.53.104,natb3,2021.2.3,Win32,59.97720866,611645b93f0840eae41426f5,611e07ecdcc96256ae8d5b80,611e757cec4ee9abf3eb2b8f,
,,,,space,0.4535,,0,334,334,61,1,C, , , , ,space,2000,2,,001,2021-08-19_16h15.53.104,natb3,2021.2.3,Win32,59.97720866,611645b93f0840eae41426f5,611e07ecdcc96256ae8d5b80,611e757cec4ee9abf3eb2b8f,
,,,,space,0.7023,,0,335,335,296,1,Y, , , , ,space,2500,2.5,,001,2021-08-19_16h15.53.104,natb3,2021.2.3,Win32,59.97720866,611645b93f0840eae41426f5,611e07ecdcc96256ae8d5b80,611e757cec4ee9abf3eb2b8f,
