key_resp_2.keys,key_resp_2.rt,key_resp_3.keys,key_resp_3.rt,key_resp.keys,key_resp.rt,key_resp_4.keys,trials.thisRepN,trials.thisTrialN,trials.thisN,trials.thisIndex,trials.ran,stimulus,distractor1,distractor2,distractor3,distractor4,CorrAns,isi_duration,isi_dur_in_seconds,participant,session,date,expName,psychopyVersion,OS,frameRate,PROLIFIC_PID,STUDY_ID,SESSION_ID,key_resp_4.rt
return,12.3078,space,19.2979,space,0.5632,,0,0,0,290,1,W, , , , ,space,1500,1.5,,001,2021-08-19_16h49.51.994,natb3,2021.2.3,Win32,60.04924038,6101b4c62455e29e67f3a4e2,611e07ecdcc96256ae8d5b80,611e7d543ebbefeb85056a53,
,,,,space,0.3862,,0,1,1,279,1,K, , , , ,space,2500,2.5,,001,2021-08-19_16h49.51.994,natb3,2021.2.3,Win32,60.04924038,6101b4c62455e29e67f3a4e2,611e07ecdcc96256ae8d5b80,611e7d543ebbefeb85056a53,
,,,,space,0.3075,,0,2,2,20,1,H, , , , ,space,1500,1.5,,001,2021-08-19_16h49.51.994,natb3,2021.2.3,Win32,60.04924038,6101b4c62455e29e67f3a4e2,611e07ecdcc96256ae8d5b80,611e7d543ebbefeb85056a53,
,,,,space,0.3196,,0,3,3,247,1,Z, , , , ,space,1500,1.5,,001,2021-08-19_16h49.51.994,natb3,2021.2.3,Win32,60.04924038,6101b4c62455e29e67f3a4e2,611e07ecdcc96256ae8d5b80,611e7d543ebbefeb85056a53,
,,,,space,0.4343,,0,4,4,117,1,T, , , , ,space,2500,2.5,,001,2021-08-19_16h49.51.994,natb3,2021.2.3,Win32,60.04924038,6101b4c62455e29e67f3a4e2,611e07ecdcc96256ae8d5b80,611e7d543ebbefeb85056a53,
,,,,space,0.3014,,0,5,5,139,1,V, , , , ,space,2000,2,,001,2021-08-19_16h49.51.994,natb3,2021.2.3,Win32,60.04924038,6101b4c62455e29e67f3a4e2,611e07ecdcc96256ae8d5b80,611e7d543ebbefeb85056a53,
,,,,space,0.2981,,0,6,6,36,1,W, , , , ,space,2000,2,,001,2021-08-19_16h49.51.994,natb3,2021.2.3,Win32,60.04924038,6101b4c62455e29e67f3a4e2,611e07ecdcc96256ae8d5b80,611e7d543ebbefeb85056a53,
,,,,space,0.3517,,0,7,7,140,1,B, , , , ,space,2500,2.5,,001,2021-08-19_16h49.51.994,natb3,2021.2.3,Win32,60.04924038,6101b4c62455e29e67f3a4e2,611e07ecdcc96256ae8d5b80,611e7d543ebbefeb85056a53,
,,,,space,0.3422,,0,8,8,334,1,O, , , , ,space,1500,1.5,,001,2021-08-19_16h49.51.994,natb3,2021.2.3,Win32,60.04924038,6101b4c62455e29e67f3a4e2,611e07ecdcc96256ae8d5b80,611e7d543ebbefeb85056a53,
,,,,space,0.3283,,0,9,9,159,1,S, , , , ,space,2500,2.5,,001,2021-08-19_16h49.51.994,natb3,2021.2.3,Win32,60.04924038,6101b4c62455e29e67f3a4e2,611e07ecdcc96256ae8d5b80,611e7d543ebbefeb85056a53,
,,,,space,0.3284,,0,10,10,186,1,U, , , , ,space,2500,2.5,,001,2021-08-19_16h49.51.994,natb3,2021.2.3,Win32,60.04924038,6101b4c62455e29e67f3a4e2,611e07ecdcc96256ae8d5b80,611e7d543ebbefeb85056a53,
,,,,space,0.428,,0,11,11,72,1,T, , , , ,space,1500,1.5,,001,2021-08-19_16h49.51.994,natb3,2021.2.3,Win32,60.04924038,6101b4c62455e29e67f3a4e2,611e07ecdcc96256ae8d5b80,611e7d543ebbefeb85056a53,
,,,,space,0.3319,,0,12,12,118,1,X, , , , ,,2000,2,,001,2021-08-19_16h49.51.994,natb3,2021.2.3,Win32,60.04924038,6101b4c62455e29e67f3a4e2,611e07ecdcc96256ae8d5b80,611e7d543ebbefeb85056a53,
,,,,,,,0,13,13,158,1,X, , , , ,,1500,1.5,,001,2021-08-19_16h49.51.994,natb3,2021.2.3,Win32,60.04924038,6101b4c62455e29e67f3a4e2,611e07ecdcc96256ae8d5b80,611e7d543ebbefeb85056a53,
,,,,,,,0,14,14,218,1,X,1,3, ,8,,1500,1.5,,001,2021-08-19_16h49.51.994,natb3,2021.2.3,Win32,60.04924038,6101b4c62455e29e67f3a4e2,611e07ecdcc96256ae8d5b80,611e7d543ebbefeb85056a53,
,,,,,,,0,15,15,133,1,X, ,4, ,6,,2500,2.5,,001,2021-08-19_16h49.51.994,natb3,2021.2.3,Win32,60.04924038,6101b4c62455e29e67f3a4e2,611e07ecdcc96256ae8d5b80,611e7d543ebbefeb85056a53,
,,,,space,0.5031,,0,16,16,316,1,Z, , , , ,space,1500,1.5,,001,2021-08-19_16h49.51.994,natb3,2021.2.3,Win32,60.04924038,6101b4c62455e29e67f3a4e2,611e07ecdcc96256ae8d5b80,611e7d543ebbefeb85056a53,
,,,,space,0.7341,,0,17,17,219,1,Y, , , , ,space,2000,2,,001,2021-08-19_16h49.51.994,natb3,2021.2.3,Win32,60.04924038,6101b4c62455e29e67f3a4e2,611e07ecdcc96256ae8d5b80,611e7d543ebbefeb85056a53,
,,,,space,0.4561,,0,18,18,114,1,E, , , , ,space,2000,2,,001,2021-08-19_16h49.51.994,natb3,2021.2.3,Win32,60.04924038,6101b4c62455e29e67f3a4e2,611e07ecdcc96256ae8d5b80,611e7d543ebbefeb85056a53,
,,,,space,0.9247,,0,19,19,123,1,O, , , , ,space,1500,1.5,,001,2021-08-19_16h49.51.994,natb3,2021.2.3,Win32,60.04924038,6101b4c62455e29e67f3a4e2,611e07ecdcc96256ae8d5b80,611e7d543ebbefeb85056a53,
,,,,space,0.684,,0,20,20,17,1,F, , , , ,space,2500,2.5,,001,2021-08-19_16h49.51.994,natb3,2021.2.3,Win32,60.04924038,6101b4c62455e29e67f3a4e2,611e07ecdcc96256ae8d5b80,611e7d543ebbefeb85056a53,
,,,,,,,0,21,21,233,1,X, ,2, ,5,,1500,1.5,,001,2021-08-19_16h49.51.994,natb3,2021.2.3,Win32,60.04924038,6101b4c62455e29e67f3a4e2,611e07ecdcc96256ae8d5b80,611e7d543ebbefeb85056a53,
,,,,space,0.4856,,0,22,22,130,1,F, , , , ,space,2000,2,,001,2021-08-19_16h49.51.994,natb3,2021.2.3,Win32,60.04924038,6101b4c62455e29e67f3a4e2,611e07ecdcc96256ae8d5b80,611e7d543ebbefeb85056a53,
,,,,space,0.5417,,0,23,23,68,1,W, , , , ,space,2500,2.5,,001,2021-08-19_16h49.51.994,natb3,2021.2.3,Win32,60.04924038,6101b4c62455e29e67f3a4e2,611e07ecdcc96256ae8d5b80,611e7d543ebbefeb85056a53,
,,,,,,,0,24,24,148,1,X, , , , ,,2000,2,,001,2021-08-19_16h49.51.994,natb3,2021.2.3,Win32,60.04924038,6101b4c62455e29e67f3a4e2,611e07ecdcc96256ae8d5b80,611e7d543ebbefeb85056a53,
,,,,,,,0,25,25,12,1,X, , , , ,,1500,1.5,,001,2021-08-19_16h49.51.994,natb3,2021.2.3,Win32,60.04924038,6101b4c62455e29e67f3a4e2,611e07ecdcc96256ae8d5b80,611e7d543ebbefeb85056a53,
,,,,space,0.5189,,0,26,26,161,1,F, , , , ,space,1500,1.5,,001,2021-08-19_16h49.51.994,natb3,2021.2.3,Win32,60.04924038,6101b4c62455e29e67f3a4e2,611e07ecdcc96256ae8d5b80,611e7d543ebbefeb85056a53,
,,,,space,0.4607,,0,27,27,56,1,J, , , , ,space,1500,1.5,,001,2021-08-19_16h49.51.994,natb3,2021.2.3,Win32,60.04924038,6101b4c62455e29e67f3a4e2,611e07ecdcc96256ae8d5b80,611e7d543ebbefeb85056a53,
,,,,space,0.6013,,0,28,28,331,1,Y, , , , ,space,2500,2.5,,001,2021-08-19_16h49.51.994,natb3,2021.2.3,Win32,60.04924038,6101b4c62455e29e67f3a4e2,611e07ecdcc96256ae8d5b80,611e7d543ebbefeb85056a53,
,,,,space,0.5256,,0,29,29,1,1,W, , , , ,space,2000,2,,001,2021-08-19_16h49.51.994,natb3,2021.2.3,Win32,60.04924038,6101b4c62455e29e67f3a4e2,611e07ecdcc96256ae8d5b80,611e7d543ebbefeb85056a53,
,,,,space,0.5403,,0,30,30,73,1,Y, , , , ,space,2000,2,,001,2021-08-19_16h49.51.994,natb3,2021.2.3,Win32,60.04924038,6101b4c62455e29e67f3a4e2,611e07ecdcc96256ae8d5b80,611e7d543ebbefeb85056a53,
,,,,space,0.7339,,0,31,31,270,1,S, , , , ,space,1500,1.5,,001,2021-08-19_16h49.51.994,natb3,2021.2.3,Win32,60.04924038,6101b4c62455e29e67f3a4e2,611e07ecdcc96256ae8d5b80,611e7d543ebbefeb85056a53,
,,,,space,0.341,,0,32,32,330,1,T, , , , ,space,2500,2.5,,001,2021-08-19_16h49.51.994,natb3,2021.2.3,Win32,60.04924038,6101b4c62455e29e67f3a4e2,611e07ecdcc96256ae8d5b80,611e7d543ebbefeb85056a53,
,,,,space,0.5663,,0,33,33,276,1,H, , , , ,space,2000,2,,001,2021-08-19_16h49.51.994,natb3,2021.2.3,Win32,60.04924038,6101b4c62455e29e67f3a4e2,611e07ecdcc96256ae8d5b80,611e7d543ebbefeb85056a53,
,,,,space,0.3519,,0,34,34,188,1,I, , , , ,space,2500,2.5,,001,2021-08-19_16h49.51.994,natb3,2021.2.3,Win32,60.04924038,6101b4c62455e29e67f3a4e2,611e07ecdcc96256ae8d5b80,611e7d543ebbefeb85056a53,
,,,,,,,0,35,35,162,1,X,1,6, ,2,,1500,1.5,,001,2021-08-19_16h49.51.994,natb3,2021.2.3,Win32,60.04924038,6101b4c62455e29e67f3a4e2,611e07ecdcc96256ae8d5b80,611e7d543ebbefeb85056a53,
,,,,space,0.4007,,0,36,36,131,1,G, , , , ,space,1500,1.5,,001,2021-08-19_16h49.51.994,natb3,2021.2.3,Win32,60.04924038,6101b4c62455e29e67f3a4e2,611e07ecdcc96256ae8d5b80,611e7d543ebbefeb85056a53,
,,,,space,0.3187,,0,37,37,135,1,K, , , , ,space,1500,1.5,,001,2021-08-19_16h49.51.994,natb3,2021.2.3,Win32,60.04924038,6101b4c62455e29e67f3a4e2,611e07ecdcc96256ae8d5b80,611e7d543ebbefeb85056a53,
,,,,space,0.3765,,0,38,38,96,1,X, , , , ,,1500,1.5,,001,2021-08-19_16h49.51.994,natb3,2021.2.3,Win32,60.04924038,6101b4c62455e29e67f3a4e2,611e07ecdcc96256ae8d5b80,611e7d543ebbefeb85056a53,
,,,,space,0.4668,,0,39,39,164,1,H, , , , ,space,2500,2.5,,001,2021-08-19_16h49.51.994,natb3,2021.2.3,Win32,60.04924038,6101b4c62455e29e67f3a4e2,611e07ecdcc96256ae8d5b80,611e7d543ebbefeb85056a53,
,,,,space,0.8833,,0,40,40,142,1,N, , , , ,space,2500,2.5,,001,2021-08-19_16h49.51.994,natb3,2021.2.3,Win32,60.04924038,6101b4c62455e29e67f3a4e2,611e07ecdcc96256ae8d5b80,611e7d543ebbefeb85056a53,
,,,,space,0.5534,,0,41,41,22,1,K, , , , ,space,2000,2,,001,2021-08-19_16h49.51.994,natb3,2021.2.3,Win32,60.04924038,6101b4c62455e29e67f3a4e2,611e07ecdcc96256ae8d5b80,611e7d543ebbefeb85056a53,
,,,,space,0.4126,,0,42,42,192,1,A, , , , ,space,2000,2,,001,2021-08-19_16h49.51.994,natb3,2021.2.3,Win32,60.04924038,6101b4c62455e29e67f3a4e2,611e07ecdcc96256ae8d5b80,611e7d543ebbefeb85056a53,
,,,,space,0.3955,,0,43,43,32,1,M, , , , ,space,1500,1.5,,001,2021-08-19_16h49.51.994,natb3,2021.2.3,Win32,60.04924038,6101b4c62455e29e67f3a4e2,611e07ecdcc96256ae8d5b80,611e7d543ebbefeb85056a53,
,,,,space,0.4187,,0,44,44,99,1,N, , , , ,space,2500,2.5,,001,2021-08-19_16h49.51.994,natb3,2021.2.3,Win32,60.04924038,6101b4c62455e29e67f3a4e2,611e07ecdcc96256ae8d5b80,611e7d543ebbefeb85056a53,
,,,,space,0.5011,,0,45,45,38,1,R, , , , ,space,2500,2.5,,001,2021-08-19_16h49.51.994,natb3,2021.2.3,Win32,60.04924038,6101b4c62455e29e67f3a4e2,611e07ecdcc96256ae8d5b80,611e7d543ebbefeb85056a53,
,,,,,,,0,46,46,166,1,X, , , , ,,2000,2,,001,2021-08-19_16h49.51.994,natb3,2021.2.3,Win32,60.04924038,6101b4c62455e29e67f3a4e2,611e07ecdcc96256ae8d5b80,611e7d543ebbefeb85056a53,
,,,,space,0.5385,,0,47,47,301,1,P, , , , ,space,1500,1.5,,001,2021-08-19_16h49.51.994,natb3,2021.2.3,Win32,60.04924038,6101b4c62455e29e67f3a4e2,611e07ecdcc96256ae8d5b80,611e7d543ebbefeb85056a53,
,,,,space,0.4922,,0,48,48,52,1,F, , , , ,space,1500,1.5,,001,2021-08-19_16h49.51.994,natb3,2021.2.3,Win32,60.04924038,6101b4c62455e29e67f3a4e2,611e07ecdcc96256ae8d5b80,611e7d543ebbefeb85056a53,
,,,,space,0.5011,,0,49,49,28,1,V, , , , ,space,1500,1.5,,001,2021-08-19_16h49.51.994,natb3,2021.2.3,Win32,60.04924038,6101b4c62455e29e67f3a4e2,611e07ecdcc96256ae8d5b80,611e7d543ebbefeb85056a53,
,,,,space,0.4443,,0,50,50,21,1,J, , , , ,space,1500,1.5,,001,2021-08-19_16h49.51.994,natb3,2021.2.3,Win32,60.04924038,6101b4c62455e29e67f3a4e2,611e07ecdcc96256ae8d5b80,611e7d543ebbefeb85056a53,
,,,,,,,0,51,51,263,1,X,4, ,6, ,,1500,1.5,,001,2021-08-19_16h49.51.994,natb3,2021.2.3,Win32,60.04924038,6101b4c62455e29e67f3a4e2,611e07ecdcc96256ae8d5b80,611e7d543ebbefeb85056a53,
,,,,,,,0,52,52,168,1,X, , , , ,,2500,2.5,,001,2021-08-19_16h49.51.994,natb3,2021.2.3,Win32,60.04924038,6101b4c62455e29e67f3a4e2,611e07ecdcc96256ae8d5b80,611e7d543ebbefeb85056a53,
,,,,space,0.5543,,0,53,53,80,1,A, , , , ,space,2000,2,,001,2021-08-19_16h49.51.994,natb3,2021.2.3,Win32,60.04924038,6101b4c62455e29e67f3a4e2,611e07ecdcc96256ae8d5b80,611e7d543ebbefeb85056a53,
,,,,space,0.4015,,0,54,54,43,1,X, ,6, ,2,,2500,2.5,,001,2021-08-19_16h49.51.994,natb3,2021.2.3,Win32,60.04924038,6101b4c62455e29e67f3a4e2,611e07ecdcc96256ae8d5b80,611e7d543ebbefeb85056a53,
,,,,space,0.4991,,0,55,55,62,1,V, , , , ,space,1500,1.5,,001,2021-08-19_16h49.51.994,natb3,2021.2.3,Win32,60.04924038,6101b4c62455e29e67f3a4e2,611e07ecdcc96256ae8d5b80,611e7d543ebbefeb85056a53,
,,,,space,0.3925,,0,56,56,227,1,T, , , , ,space,1500,1.5,,001,2021-08-19_16h49.51.994,natb3,2021.2.3,Win32,60.04924038,6101b4c62455e29e67f3a4e2,611e07ecdcc96256ae8d5b80,611e7d543ebbefeb85056a53,
,,,,space,0.3352,,0,57,57,145,1,X, , , , ,,2000,2,,001,2021-08-19_16h49.51.994,natb3,2021.2.3,Win32,60.04924038,6101b4c62455e29e67f3a4e2,611e07ecdcc96256ae8d5b80,611e7d543ebbefeb85056a53,
,,,,,,,0,58,58,93,1,X,5, ,7, ,,2500,2.5,,001,2021-08-19_16h49.51.994,natb3,2021.2.3,Win32,60.04924038,6101b4c62455e29e67f3a4e2,611e07ecdcc96256ae8d5b80,611e7d543ebbefeb85056a53,
,,,,space,0.483,,0,59,59,274,1,F, , , , ,space,2000,2,,001,2021-08-19_16h49.51.994,natb3,2021.2.3,Win32,60.04924038,6101b4c62455e29e67f3a4e2,611e07ecdcc96256ae8d5b80,611e7d543ebbefeb85056a53,
,,,,,,,0,60,60,4,1,X, , , , ,,2000,2,,001,2021-08-19_16h49.51.994,natb3,2021.2.3,Win32,60.04924038,6101b4c62455e29e67f3a4e2,611e07ecdcc96256ae8d5b80,611e7d543ebbefeb85056a53,
,,,,,,,0,61,61,306,1,D, , , , ,space,2000,2,,001,2021-08-19_16h49.51.994,natb3,2021.2.3,Win32,60.04924038,6101b4c62455e29e67f3a4e2,611e07ecdcc96256ae8d5b80,611e7d543ebbefeb85056a53,
,,,,space,0.4088,,0,62,62,177,1,M, , , , ,space,2500,2.5,,001,2021-08-19_16h49.51.994,natb3,2021.2.3,Win32,60.04924038,6101b4c62455e29e67f3a4e2,611e07ecdcc96256ae8d5b80,611e7d543ebbefeb85056a53,
,,,,,,,0,63,63,46,1,X, , , , ,,2000,2,,001,2021-08-19_16h49.51.994,natb3,2021.2.3,Win32,60.04924038,6101b4c62455e29e67f3a4e2,611e07ecdcc96256ae8d5b80,611e7d543ebbefeb85056a53,
,,,,space,0.4537,,0,64,64,65,1,M, , , , ,space,1500,1.5,,001,2021-08-19_16h49.51.994,natb3,2021.2.3,Win32,60.04924038,6101b4c62455e29e67f3a4e2,611e07ecdcc96256ae8d5b80,611e7d543ebbefeb85056a53,
,,,,space,0.4691,,0,65,65,241,1,G, , , , ,space,2500,2.5,,001,2021-08-19_16h49.51.994,natb3,2021.2.3,Win32,60.04924038,6101b4c62455e29e67f3a4e2,611e07ecdcc96256ae8d5b80,611e7d543ebbefeb85056a53,
,,,,space,0.4601,,0,66,66,88,1,J, , , , ,space,2500,2.5,,001,2021-08-19_16h49.51.994,natb3,2021.2.3,Win32,60.04924038,6101b4c62455e29e67f3a4e2,611e07ecdcc96256ae8d5b80,611e7d543ebbefeb85056a53,
,,,,,,,0,67,67,89,1,X,3, , , ,,2000,2,,001,2021-08-19_16h49.51.994,natb3,2021.2.3,Win32,60.04924038,6101b4c62455e29e67f3a4e2,611e07ecdcc96256ae8d5b80,611e7d543ebbefeb85056a53,
,,,,space,0.7383,,0,68,68,59,1,Z, , , , ,space,2000,2,,001,2021-08-19_16h49.51.994,natb3,2021.2.3,Win32,60.04924038,6101b4c62455e29e67f3a4e2,611e07ecdcc96256ae8d5b80,611e7d543ebbefeb85056a53,
,,,,space,0.7031,,0,69,69,103,1,W, , , , ,space,2000,2,,001,2021-08-19_16h49.51.994,natb3,2021.2.3,Win32,60.04924038,6101b4c62455e29e67f3a4e2,611e07ecdcc96256ae8d5b80,611e7d543ebbefeb85056a53,
,,,,space,0.4676,,0,70,70,293,1,R, , , , ,space,2500,2.5,,001,2021-08-19_16h49.51.994,natb3,2021.2.3,Win32,60.04924038,6101b4c62455e29e67f3a4e2,611e07ecdcc96256ae8d5b80,611e7d543ebbefeb85056a53,
,,,,space,0.3756,,0,71,71,303,1,A, , , , ,space,2000,2,,001,2021-08-19_16h49.51.994,natb3,2021.2.3,Win32,60.04924038,6101b4c62455e29e67f3a4e2,611e07ecdcc96256ae8d5b80,611e7d543ebbefeb85056a53,
,,,,space,0.4852,,0,72,72,266,1,O, , , , ,space,1500,1.5,,001,2021-08-19_16h49.51.994,natb3,2021.2.3,Win32,60.04924038,6101b4c62455e29e67f3a4e2,611e07ecdcc96256ae8d5b80,611e7d543ebbefeb85056a53,
,,,,,,,0,73,73,200,1,X,7, ,5,3,,1500,1.5,,001,2021-08-19_16h49.51.994,natb3,2021.2.3,Win32,60.04924038,6101b4c62455e29e67f3a4e2,611e07ecdcc96256ae8d5b80,611e7d543ebbefeb85056a53,
,,,,,,,0,74,74,211,1,X, , , , ,,2500,2.5,,001,2021-08-19_16h49.51.994,natb3,2021.2.3,Win32,60.04924038,6101b4c62455e29e67f3a4e2,611e07ecdcc96256ae8d5b80,611e7d543ebbefeb85056a53,
,,,,space,0.43,,0,75,75,246,1,L, , , , ,space,2500,2.5,,001,2021-08-19_16h49.51.994,natb3,2021.2.3,Win32,60.04924038,6101b4c62455e29e67f3a4e2,611e07ecdcc96256ae8d5b80,611e7d543ebbefeb85056a53,
,,,,,,,0,76,76,239,1,X, , , , ,,2000,2,,001,2021-08-19_16h49.51.994,natb3,2021.2.3,Win32,60.04924038,6101b4c62455e29e67f3a4e2,611e07ecdcc96256ae8d5b80,611e7d543ebbefeb85056a53,
,,,,space,0.5163,,0,77,77,55,1,H, , , , ,space,2500,2.5,,001,2021-08-19_16h49.51.994,natb3,2021.2.3,Win32,60.04924038,6101b4c62455e29e67f3a4e2,611e07ecdcc96256ae8d5b80,611e7d543ebbefeb85056a53,
,,,,space,0.5845,,0,78,78,57,1,K, , , , ,space,2500,2.5,,001,2021-08-19_16h49.51.994,natb3,2021.2.3,Win32,60.04924038,6101b4c62455e29e67f3a4e2,611e07ecdcc96256ae8d5b80,611e7d543ebbefeb85056a53,
,,,,space,0.4695,,0,79,79,11,1,P, , , , ,space,2500,2.5,,001,2021-08-19_16h49.51.994,natb3,2021.2.3,Win32,60.04924038,6101b4c62455e29e67f3a4e2,611e07ecdcc96256ae8d5b80,611e7d543ebbefeb85056a53,
,,,,,,,0,80,80,187,1,X, ,3,7,4,,1500,1.5,,001,2021-08-19_16h49.51.994,natb3,2021.2.3,Win32,60.04924038,6101b4c62455e29e67f3a4e2,611e07ecdcc96256ae8d5b80,611e7d543ebbefeb85056a53,
,,,,space,0.67,,0,81,81,113,1,W, , , , ,space,2500,2.5,,001,2021-08-19_16h49.51.994,natb3,2021.2.3,Win32,60.04924038,6101b4c62455e29e67f3a4e2,611e07ecdcc96256ae8d5b80,611e7d543ebbefeb85056a53,
,,,,space,0.4291,,0,82,82,77,1,O, , , , ,space,2000,2,,001,2021-08-19_16h49.51.994,natb3,2021.2.3,Win32,60.04924038,6101b4c62455e29e67f3a4e2,611e07ecdcc96256ae8d5b80,611e7d543ebbefeb85056a53,
,,,,space,0.4306,,0,83,83,121,1,I, , , , ,space,2000,2,,001,2021-08-19_16h49.51.994,natb3,2021.2.3,Win32,60.04924038,6101b4c62455e29e67f3a4e2,611e07ecdcc96256ae8d5b80,611e7d543ebbefeb85056a53,
,,,,space,0.4027,,0,84,84,70,1,E, , , , ,space,2500,2.5,,001,2021-08-19_16h49.51.994,natb3,2021.2.3,Win32,60.04924038,6101b4c62455e29e67f3a4e2,611e07ecdcc96256ae8d5b80,611e7d543ebbefeb85056a53,
,,,,space,0.419,,0,85,85,298,1,I, , , , ,space,2000,2,,001,2021-08-19_16h49.51.994,natb3,2021.2.3,Win32,60.04924038,6101b4c62455e29e67f3a4e2,611e07ecdcc96256ae8d5b80,611e7d543ebbefeb85056a53,
,,,,space,0.6185,,0,86,86,149,1,R, , , , ,space,2000,2,,001,2021-08-19_16h49.51.994,natb3,2021.2.3,Win32,60.04924038,6101b4c62455e29e67f3a4e2,611e07ecdcc96256ae8d5b80,611e7d543ebbefeb85056a53,
,,,,,,,0,87,87,35,1,X, , , , ,,2500,2.5,,001,2021-08-19_16h49.51.994,natb3,2021.2.3,Win32,60.04924038,6101b4c62455e29e67f3a4e2,611e07ecdcc96256ae8d5b80,611e7d543ebbefeb85056a53,
,,,,space,0.5315,,0,88,88,262,1,Y, , , , ,space,2500,2.5,,001,2021-08-19_16h49.51.994,natb3,2021.2.3,Win32,60.04924038,6101b4c62455e29e67f3a4e2,611e07ecdcc96256ae8d5b80,611e7d543ebbefeb85056a53,
,,,,space,0.9651,,0,89,89,234,1,P, , , , ,space,2000,2,,001,2021-08-19_16h49.51.994,natb3,2021.2.3,Win32,60.04924038,6101b4c62455e29e67f3a4e2,611e07ecdcc96256ae8d5b80,611e7d543ebbefeb85056a53,
,,,,,,,0,90,90,282,1,X, , , , ,,2500,2.5,,001,2021-08-19_16h49.51.994,natb3,2021.2.3,Win32,60.04924038,6101b4c62455e29e67f3a4e2,611e07ecdcc96256ae8d5b80,611e7d543ebbefeb85056a53,
,,,,space,0.4824,,0,91,91,215,1,E, , , , ,space,2500,2.5,,001,2021-08-19_16h49.51.994,natb3,2021.2.3,Win32,60.04924038,6101b4c62455e29e67f3a4e2,611e07ecdcc96256ae8d5b80,611e7d543ebbefeb85056a53,
,,,,,,,0,92,92,320,1,B, , , , ,space,1500,1.5,,001,2021-08-19_16h49.51.994,natb3,2021.2.3,Win32,60.04924038,6101b4c62455e29e67f3a4e2,611e07ecdcc96256ae8d5b80,611e7d543ebbefeb85056a53,
,,,,,,,0,93,93,243,1,X, , , , ,,2500,2.5,,001,2021-08-19_16h49.51.994,natb3,2021.2.3,Win32,60.04924038,6101b4c62455e29e67f3a4e2,611e07ecdcc96256ae8d5b80,611e7d543ebbefeb85056a53,
,,,,,,,0,94,94,332,1,U, , , , ,space,2000,2,,001,2021-08-19_16h49.51.994,natb3,2021.2.3,Win32,60.04924038,6101b4c62455e29e67f3a4e2,611e07ecdcc96256ae8d5b80,611e7d543ebbefeb85056a53,
,,,,space,0.5925,,0,95,95,134,1,J, , , , ,space,2000,2,,001,2021-08-19_16h49.51.994,natb3,2021.2.3,Win32,60.04924038,6101b4c62455e29e67f3a4e2,611e07ecdcc96256ae8d5b80,611e7d543ebbefeb85056a53,
,,,,space,0.5579,,0,96,96,317,1,C, , , , ,space,2000,2,,001,2021-08-19_16h49.51.994,natb3,2021.2.3,Win32,60.04924038,6101b4c62455e29e67f3a4e2,611e07ecdcc96256ae8d5b80,611e7d543ebbefeb85056a53,
,,,,space,0.6511,,0,97,97,251,1,B, , , , ,space,1500,1.5,,001,2021-08-19_16h49.51.994,natb3,2021.2.3,Win32,60.04924038,6101b4c62455e29e67f3a4e2,611e07ecdcc96256ae8d5b80,611e7d543ebbefeb85056a53,
,,,,space,0.4747,,0,98,98,213,1,X, , , , ,,2500,2.5,,001,2021-08-19_16h49.51.994,natb3,2021.2.3,Win32,60.04924038,6101b4c62455e29e67f3a4e2,611e07ecdcc96256ae8d5b80,611e7d543ebbefeb85056a53,
,,,,space,0.6861,,0,99,99,8,1,U, , , , ,space,1500,1.5,,001,2021-08-19_16h49.51.994,natb3,2021.2.3,Win32,60.04924038,6101b4c62455e29e67f3a4e2,611e07ecdcc96256ae8d5b80,611e7d543ebbefeb85056a53,
,,,,space,0.6038,,0,100,100,24,1,L, , , , ,space,2500,2.5,,001,2021-08-19_16h49.51.994,natb3,2021.2.3,Win32,60.04924038,6101b4c62455e29e67f3a4e2,611e07ecdcc96256ae8d5b80,611e7d543ebbefeb85056a53,
,,,,space,0.9593,,0,101,101,244,1,J, , , , ,space,1500,1.5,,001,2021-08-19_16h49.51.994,natb3,2021.2.3,Win32,60.04924038,6101b4c62455e29e67f3a4e2,611e07ecdcc96256ae8d5b80,611e7d543ebbefeb85056a53,
,,,,space,0.3806,,0,102,102,312,1,K, , , , ,space,2000,2,,001,2021-08-19_16h49.51.994,natb3,2021.2.3,Win32,60.04924038,6101b4c62455e29e67f3a4e2,611e07ecdcc96256ae8d5b80,611e7d543ebbefeb85056a53,
,,,,,,,0,103,103,287,1,X, ,2, ,9,,2000,2,,001,2021-08-19_16h49.51.994,natb3,2021.2.3,Win32,60.04924038,6101b4c62455e29e67f3a4e2,611e07ecdcc96256ae8d5b80,611e7d543ebbefeb85056a53,
,,,,,,,0,104,104,273,1,X, , , , ,,2000,2,,001,2021-08-19_16h49.51.994,natb3,2021.2.3,Win32,60.04924038,6101b4c62455e29e67f3a4e2,611e07ecdcc96256ae8d5b80,611e7d543ebbefeb85056a53,
,,,,space,0.3814,,0,105,105,61,1,C, , , , ,space,2000,2,,001,2021-08-19_16h49.51.994,natb3,2021.2.3,Win32,60.04924038,6101b4c62455e29e67f3a4e2,611e07ecdcc96256ae8d5b80,611e7d543ebbefeb85056a53,
,,,,space,0.5315,,0,106,106,242,1,H, , , , ,space,2500,2.5,,001,2021-08-19_16h49.51.994,natb3,2021.2.3,Win32,60.04924038,6101b4c62455e29e67f3a4e2,611e07ecdcc96256ae8d5b80,611e7d543ebbefeb85056a53,
,,,,space,0.5852,,0,107,107,180,1,W, , , , ,space,2000,2,,001,2021-08-19_16h49.51.994,natb3,2021.2.3,Win32,60.04924038,6101b4c62455e29e67f3a4e2,611e07ecdcc96256ae8d5b80,611e7d543ebbefeb85056a53,
,,,,space,0.4778,,0,108,108,323,1,M, , , , ,space,2500,2.5,,001,2021-08-19_16h49.51.994,natb3,2021.2.3,Win32,60.04924038,6101b4c62455e29e67f3a4e2,611e07ecdcc96256ae8d5b80,611e7d543ebbefeb85056a53,
,,,,space,0.6081,,0,109,109,16,1,D, , , , ,space,1500,1.5,,001,2021-08-19_16h49.51.994,natb3,2021.2.3,Win32,60.04924038,6101b4c62455e29e67f3a4e2,611e07ecdcc96256ae8d5b80,611e7d543ebbefeb85056a53,
,,,,space,0.4079,,0,110,110,195,1,X, , , , ,,1500,1.5,,001,2021-08-19_16h49.51.994,natb3,2021.2.3,Win32,60.04924038,6101b4c62455e29e67f3a4e2,611e07ecdcc96256ae8d5b80,611e7d543ebbefeb85056a53,
,,,,,,,0,111,111,302,1,X, , , , ,,2000,2,,001,2021-08-19_16h49.51.994,natb3,2021.2.3,Win32,60.04924038,6101b4c62455e29e67f3a4e2,611e07ecdcc96256ae8d5b80,611e7d543ebbefeb85056a53,
,,,,space,0.3984,,0,112,112,169,1,L, , , , ,space,2500,2.5,,001,2021-08-19_16h49.51.994,natb3,2021.2.3,Win32,60.04924038,6101b4c62455e29e67f3a4e2,611e07ecdcc96256ae8d5b80,611e7d543ebbefeb85056a53,
,,,,,,,0,113,113,236,1,X,3, ,4,7,,2500,2.5,,001,2021-08-19_16h49.51.994,natb3,2021.2.3,Win32,60.04924038,6101b4c62455e29e67f3a4e2,611e07ecdcc96256ae8d5b80,611e7d543ebbefeb85056a53,
,,,,space,0.5517,,0,114,114,87,1,H, , , , ,space,1500,1.5,,001,2021-08-19_16h49.51.994,natb3,2021.2.3,Win32,60.04924038,6101b4c62455e29e67f3a4e2,611e07ecdcc96256ae8d5b80,611e7d543ebbefeb85056a53,
,,,,,,,0,115,115,27,1,X,5, ,1,3,,1500,1.5,,001,2021-08-19_16h49.51.994,natb3,2021.2.3,Win32,60.04924038,6101b4c62455e29e67f3a4e2,611e07ecdcc96256ae8d5b80,611e7d543ebbefeb85056a53,
,,,,space,0.4156,,0,116,116,14,1,S, , , , ,space,2500,2.5,,001,2021-08-19_16h49.51.994,natb3,2021.2.3,Win32,60.04924038,6101b4c62455e29e67f3a4e2,611e07ecdcc96256ae8d5b80,611e7d543ebbefeb85056a53,
,,,,,,,0,117,117,291,1,X, , , , ,,2000,2,,001,2021-08-19_16h49.51.994,natb3,2021.2.3,Win32,60.04924038,6101b4c62455e29e67f3a4e2,611e07ecdcc96256ae8d5b80,611e7d543ebbefeb85056a53,
,,,,,,,0,118,118,106,1,T, , , , ,space,1500,1.5,,001,2021-08-19_16h49.51.994,natb3,2021.2.3,Win32,60.04924038,6101b4c62455e29e67f3a4e2,611e07ecdcc96256ae8d5b80,611e7d543ebbefeb85056a53,
,,,,,,,0,119,119,259,1,X,8, , ,3,,2500,2.5,,001,2021-08-19_16h49.51.994,natb3,2021.2.3,Win32,60.04924038,6101b4c62455e29e67f3a4e2,611e07ecdcc96256ae8d5b80,611e7d543ebbefeb85056a53,
,,,,space,0.4619,,0,120,120,40,1,T, , , , ,space,1500,1.5,,001,2021-08-19_16h49.51.994,natb3,2021.2.3,Win32,60.04924038,6101b4c62455e29e67f3a4e2,611e07ecdcc96256ae8d5b80,611e7d543ebbefeb85056a53,
,,,,space,0.5368,,0,121,121,189,1,O, , , , ,space,1500,1.5,,001,2021-08-19_16h49.51.994,natb3,2021.2.3,Win32,60.04924038,6101b4c62455e29e67f3a4e2,611e07ecdcc96256ae8d5b80,611e7d543ebbefeb85056a53,
,,,,space,0.369,,0,122,122,110,1,I, , , , ,space,1500,1.5,,001,2021-08-19_16h49.51.994,natb3,2021.2.3,Win32,60.04924038,6101b4c62455e29e67f3a4e2,611e07ecdcc96256ae8d5b80,611e7d543ebbefeb85056a53,
,,,,space,0.4531,,0,123,123,50,1,D, , , , ,space,1500,1.5,,001,2021-08-19_16h49.51.994,natb3,2021.2.3,Win32,60.04924038,6101b4c62455e29e67f3a4e2,611e07ecdcc96256ae8d5b80,611e7d543ebbefeb85056a53,
,,,,space,0.5074,,0,124,124,194,1,D, , , , ,space,2000,2,,001,2021-08-19_16h49.51.994,natb3,2021.2.3,Win32,60.04924038,6101b4c62455e29e67f3a4e2,611e07ecdcc96256ae8d5b80,611e7d543ebbefeb85056a53,
,,,,space,0.7331,,0,125,125,285,1,B, , , , ,space,1500,1.5,,001,2021-08-19_16h49.51.994,natb3,2021.2.3,Win32,60.04924038,6101b4c62455e29e67f3a4e2,611e07ecdcc96256ae8d5b80,611e7d543ebbefeb85056a53,
,,,,space,0.465,,0,126,126,143,1,M, , , , ,space,2500,2.5,,001,2021-08-19_16h49.51.994,natb3,2021.2.3,Win32,60.04924038,6101b4c62455e29e67f3a4e2,611e07ecdcc96256ae8d5b80,611e7d543ebbefeb85056a53,
,,,,,,,0,127,127,304,1,S, , , , ,space,2000,2,,001,2021-08-19_16h49.51.994,natb3,2021.2.3,Win32,60.04924038,6101b4c62455e29e67f3a4e2,611e07ecdcc96256ae8d5b80,611e7d543ebbefeb85056a53,
,,,,space,0.3853,,0,128,128,79,1,P, , , , ,space,2000,2,,001,2021-08-19_16h49.51.994,natb3,2021.2.3,Win32,60.04924038,6101b4c62455e29e67f3a4e2,611e07ecdcc96256ae8d5b80,611e7d543ebbefeb85056a53,
,,,,space,0.4081,,0,129,129,125,1,X, , , , ,,2000,2,,001,2021-08-19_16h49.51.994,natb3,2021.2.3,Win32,60.04924038,6101b4c62455e29e67f3a4e2,611e07ecdcc96256ae8d5b80,611e7d543ebbefeb85056a53,
,,,,space,0.4198,,0,130,130,202,1,L, , , , ,space,2500,2.5,,001,2021-08-19_16h49.51.994,natb3,2021.2.3,Win32,60.04924038,6101b4c62455e29e67f3a4e2,611e07ecdcc96256ae8d5b80,611e7d543ebbefeb85056a53,
,,,,,,,0,131,131,60,1,X,7,3,5, ,,1500,1.5,,001,2021-08-19_16h49.51.994,natb3,2021.2.3,Win32,60.04924038,6101b4c62455e29e67f3a4e2,611e07ecdcc96256ae8d5b80,611e7d543ebbefeb85056a53,
,,,,,,,0,132,132,294,1,T, , , , ,space,2000,2,,001,2021-08-19_16h49.51.994,natb3,2021.2.3,Win32,60.04924038,6101b4c62455e29e67f3a4e2,611e07ecdcc96256ae8d5b80,611e7d543ebbefeb85056a53,
,,,,,,,0,133,133,69,1,X, , , , ,,1500,1.5,,001,2021-08-19_16h49.51.994,natb3,2021.2.3,Win32,60.04924038,6101b4c62455e29e67f3a4e2,611e07ecdcc96256ae8d5b80,611e7d543ebbefeb85056a53,
,,,,space,0.4196,,0,134,134,208,1,B, , , , ,space,1500,1.5,,001,2021-08-19_16h49.51.994,natb3,2021.2.3,Win32,60.04924038,6101b4c62455e29e67f3a4e2,611e07ecdcc96256ae8d5b80,611e7d543ebbefeb85056a53,
,,,,space,0.4912,,0,135,135,119,1,Y, , , , ,space,2500,2.5,,001,2021-08-19_16h49.51.994,natb3,2021.2.3,Win32,60.04924038,6101b4c62455e29e67f3a4e2,611e07ecdcc96256ae8d5b80,611e7d543ebbefeb85056a53,
,,,,,,,0,136,136,153,1,X,4,7, ,6,,2000,2,,001,2021-08-19_16h49.51.994,natb3,2021.2.3,Win32,60.04924038,6101b4c62455e29e67f3a4e2,611e07ecdcc96256ae8d5b80,611e7d543ebbefeb85056a53,
,,,,space,0.5051,,0,137,137,237,1,S, , , , ,space,1500,1.5,,001,2021-08-19_16h49.51.994,natb3,2021.2.3,Win32,60.04924038,6101b4c62455e29e67f3a4e2,611e07ecdcc96256ae8d5b80,611e7d543ebbefeb85056a53,
,,,,,,,0,138,138,15,1,X, , , , ,,1500,1.5,,001,2021-08-19_16h49.51.994,natb3,2021.2.3,Win32,60.04924038,6101b4c62455e29e67f3a4e2,611e07ecdcc96256ae8d5b80,611e7d543ebbefeb85056a53,
,,,,space,0.4491,,0,139,139,105,1,R, , , , ,space,2500,2.5,,001,2021-08-19_16h49.51.994,natb3,2021.2.3,Win32,60.04924038,6101b4c62455e29e67f3a4e2,611e07ecdcc96256ae8d5b80,611e7d543ebbefeb85056a53,
,,,,space,0.3153,,0,140,140,209,1,N, , , , ,space,2000,2,,001,2021-08-19_16h49.51.994,natb3,2021.2.3,Win32,60.04924038,6101b4c62455e29e67f3a4e2,611e07ecdcc96256ae8d5b80,611e7d543ebbefeb85056a53,
,,,,space,0.3224,,0,141,141,207,1,X,9, ,2, ,,2500,2.5,,001,2021-08-19_16h49.51.994,natb3,2021.2.3,Win32,60.04924038,6101b4c62455e29e67f3a4e2,611e07ecdcc96256ae8d5b80,611e7d543ebbefeb85056a53,
,,,,space,0.4539,,0,142,142,232,1,O, , , , ,space,2500,2.5,,001,2021-08-19_16h49.51.994,natb3,2021.2.3,Win32,60.04924038,6101b4c62455e29e67f3a4e2,611e07ecdcc96256ae8d5b80,611e7d543ebbefeb85056a53,
,,,,space,0.4652,,0,143,143,297,1,U, , , , ,space,2000,2,,001,2021-08-19_16h49.51.994,natb3,2021.2.3,Win32,60.04924038,6101b4c62455e29e67f3a4e2,611e07ecdcc96256ae8d5b80,611e7d543ebbefeb85056a53,
,,,,space,0.397,,0,144,144,217,1,T, , , , ,space,2500,2.5,,001,2021-08-19_16h49.51.994,natb3,2021.2.3,Win32,60.04924038,6101b4c62455e29e67f3a4e2,611e07ecdcc96256ae8d5b80,611e7d543ebbefeb85056a53,
,,,,space,0.3845,,0,145,145,198,1,H, , , , ,space,2500,2.5,,001,2021-08-19_16h49.51.994,natb3,2021.2.3,Win32,60.04924038,6101b4c62455e29e67f3a4e2,611e07ecdcc96256ae8d5b80,611e7d543ebbefeb85056a53,
,,,,,,,0,146,146,325,1,X, , , , ,,2500,2.5,,001,2021-08-19_16h49.51.994,natb3,2021.2.3,Win32,60.04924038,6101b4c62455e29e67f3a4e2,611e07ecdcc96256ae8d5b80,611e7d543ebbefeb85056a53,
,,,,space,0.6148,,0,147,147,258,1,E, , , , ,space,1500,1.5,,001,2021-08-19_16h49.51.994,natb3,2021.2.3,Win32,60.04924038,6101b4c62455e29e67f3a4e2,611e07ecdcc96256ae8d5b80,611e7d543ebbefeb85056a53,
,,,,space,0.3823,,0,148,148,64,1,N, , , , ,space,2000,2,,001,2021-08-19_16h49.51.994,natb3,2021.2.3,Win32,60.04924038,6101b4c62455e29e67f3a4e2,611e07ecdcc96256ae8d5b80,611e7d543ebbefeb85056a53,
,,,,space,0.423,,0,149,149,132,1,H, , , , ,space,2500,2.5,,001,2021-08-19_16h49.51.994,natb3,2021.2.3,Win32,60.04924038,6101b4c62455e29e67f3a4e2,611e07ecdcc96256ae8d5b80,611e7d543ebbefeb85056a53,
,,,,space,0.3887,,0,150,150,112,1,Q, , , , ,space,2500,2.5,,001,2021-08-19_16h49.51.994,natb3,2021.2.3,Win32,60.04924038,6101b4c62455e29e67f3a4e2,611e07ecdcc96256ae8d5b80,611e7d543ebbefeb85056a53,
,,,,space,0.4658,,0,151,151,53,1,G, , , , ,space,2500,2.5,,001,2021-08-19_16h49.51.994,natb3,2021.2.3,Win32,60.04924038,6101b4c62455e29e67f3a4e2,611e07ecdcc96256ae8d5b80,611e7d543ebbefeb85056a53,
,,,,space,0.2967,,0,152,152,30,1,N, , , , ,space,2500,2.5,,001,2021-08-19_16h49.51.994,natb3,2021.2.3,Win32,60.04924038,6101b4c62455e29e67f3a4e2,611e07ecdcc96256ae8d5b80,611e7d543ebbefeb85056a53,
,,,,space,0.3807,,0,153,153,146,1,W, , , , ,space,1500,1.5,,001,2021-08-19_16h49.51.994,natb3,2021.2.3,Win32,60.04924038,6101b4c62455e29e67f3a4e2,611e07ecdcc96256ae8d5b80,611e7d543ebbefeb85056a53,
,,,,,,,0,154,154,271,1,X, , , , ,,2500,2.5,,001,2021-08-19_16h49.51.994,natb3,2021.2.3,Win32,60.04924038,6101b4c62455e29e67f3a4e2,611e07ecdcc96256ae8d5b80,611e7d543ebbefeb85056a53,
,,,,space,0.412,,0,155,155,76,1,I, , , , ,space,2000,2,,001,2021-08-19_16h49.51.994,natb3,2021.2.3,Win32,60.04924038,6101b4c62455e29e67f3a4e2,611e07ecdcc96256ae8d5b80,611e7d543ebbefeb85056a53,
,,,,space,0.4464,,0,156,156,226,1,R, , , , ,space,2000,2,,001,2021-08-19_16h49.51.994,natb3,2021.2.3,Win32,60.04924038,6101b4c62455e29e67f3a4e2,611e07ecdcc96256ae8d5b80,611e7d543ebbefeb85056a53,
,,,,space,0.4393,,0,157,157,147,1,E, , , , ,space,2000,2,,001,2021-08-19_16h49.51.994,natb3,2021.2.3,Win32,60.04924038,6101b4c62455e29e67f3a4e2,611e07ecdcc96256ae8d5b80,611e7d543ebbefeb85056a53,
,,,,space,0.3637,,0,158,158,256,1,Q, , , , ,space,2000,2,,001,2021-08-19_16h49.51.994,natb3,2021.2.3,Win32,60.04924038,6101b4c62455e29e67f3a4e2,611e07ecdcc96256ae8d5b80,611e7d543ebbefeb85056a53,
,,,,space,0.447,,0,159,159,221,1,I, , , , ,space,2500,2.5,,001,2021-08-19_16h49.51.994,natb3,2021.2.3,Win32,60.04924038,6101b4c62455e29e67f3a4e2,611e07ecdcc96256ae8d5b80,611e7d543ebbefeb85056a53,
,,,,,,,0,160,160,31,1,X, , , , ,,1500,1.5,,001,2021-08-19_16h49.51.994,natb3,2021.2.3,Win32,60.04924038,6101b4c62455e29e67f3a4e2,611e07ecdcc96256ae8d5b80,611e7d543ebbefeb85056a53,
,,,,space,0.4631,,0,161,161,157,1,A, , , , ,space,2500,2.5,,001,2021-08-19_16h49.51.994,natb3,2021.2.3,Win32,60.04924038,6101b4c62455e29e67f3a4e2,611e07ecdcc96256ae8d5b80,611e7d543ebbefeb85056a53,
,,,,space,0.7552,,0,162,162,58,1,L, , , , ,space,2000,2,,001,2021-08-19_16h49.51.994,natb3,2021.2.3,Win32,60.04924038,6101b4c62455e29e67f3a4e2,611e07ecdcc96256ae8d5b80,611e7d543ebbefeb85056a53,
,,,,space,0.4024,,0,163,163,91,1,L, , , , ,space,2000,2,,001,2021-08-19_16h49.51.994,natb3,2021.2.3,Win32,60.04924038,6101b4c62455e29e67f3a4e2,611e07ecdcc96256ae8d5b80,611e7d543ebbefeb85056a53,
,,,,space,0.4147,,0,164,164,275,1,G, , , , ,space,1500,1.5,,001,2021-08-19_16h49.51.994,natb3,2021.2.3,Win32,60.04924038,6101b4c62455e29e67f3a4e2,611e07ecdcc96256ae8d5b80,611e7d543ebbefeb85056a53,
,,,,,,,0,165,165,51,1,X,7,5,8, ,,1500,1.5,,001,2021-08-19_16h49.51.994,natb3,2021.2.3,Win32,60.04924038,6101b4c62455e29e67f3a4e2,611e07ecdcc96256ae8d5b80,611e7d543ebbefeb85056a53,
,,,,space,0.4283,,0,166,166,29,1,B, , , , ,space,1500,1.5,,001,2021-08-19_16h49.51.994,natb3,2021.2.3,Win32,60.04924038,6101b4c62455e29e67f3a4e2,611e07ecdcc96256ae8d5b80,611e7d543ebbefeb85056a53,
,,,,space,0.9144,space,0,167,167,235,1,A, , , , ,space,1500,1.5,,001,2021-08-19_16h49.51.994,natb3,2021.2.3,Win32,60.04924038,6101b4c62455e29e67f3a4e2,611e07ecdcc96256ae8d5b80,611e7d543ebbefeb85056a53,96.2905
,,,,space,0.6459,,0,168,168,284,1,V, , , , ,space,2500,2.5,,001,2021-08-19_16h49.51.994,natb3,2021.2.3,Win32,60.04924038,6101b4c62455e29e67f3a4e2,611e07ecdcc96256ae8d5b80,611e7d543ebbefeb85056a53,
,,,,space,0.4556,,0,169,169,144,1,Q, , , , ,space,2500,2.5,,001,2021-08-19_16h49.51.994,natb3,2021.2.3,Win32,60.04924038,6101b4c62455e29e67f3a4e2,611e07ecdcc96256ae8d5b80,611e7d543ebbefeb85056a53,
,,,,space,0.4029,,0,170,170,220,1,U, , , , ,space,2500,2.5,,001,2021-08-19_16h49.51.994,natb3,2021.2.3,Win32,60.04924038,6101b4c62455e29e67f3a4e2,611e07ecdcc96256ae8d5b80,611e7d543ebbefeb85056a53,
,,,,space,0.352,,0,171,171,81,1,S, , , , ,space,2000,2,,001,2021-08-19_16h49.51.994,natb3,2021.2.3,Win32,60.04924038,6101b4c62455e29e67f3a4e2,611e07ecdcc96256ae8d5b80,611e7d543ebbefeb85056a53,
,,,,,,,0,172,172,295,1,X,8,7,5, ,,2500,2.5,,001,2021-08-19_16h49.51.994,natb3,2021.2.3,Win32,60.04924038,6101b4c62455e29e67f3a4e2,611e07ecdcc96256ae8d5b80,611e7d543ebbefeb85056a53,
,,,,space,0.3808,,0,173,173,328,1,R, , , , ,space,1500,1.5,,001,2021-08-19_16h49.51.994,natb3,2021.2.3,Win32,60.04924038,6101b4c62455e29e67f3a4e2,611e07ecdcc96256ae8d5b80,611e7d543ebbefeb85056a53,
,,,,space,0.4302,,0,174,174,193,1,S, , , , ,space,2500,2.5,,001,2021-08-19_16h49.51.994,natb3,2021.2.3,Win32,60.04924038,6101b4c62455e29e67f3a4e2,611e07ecdcc96256ae8d5b80,611e7d543ebbefeb85056a53,
,,,,space,0.7648,,0,175,175,327,1,E, , , , ,space,1500,1.5,,001,2021-08-19_16h49.51.994,natb3,2021.2.3,Win32,60.04924038,6101b4c62455e29e67f3a4e2,611e07ecdcc96256ae8d5b80,611e7d543ebbefeb85056a53,
,,,,space,0.3293,,0,176,176,63,1,B, , , , ,space,2000,2,,001,2021-08-19_16h49.51.994,natb3,2021.2.3,Win32,60.04924038,6101b4c62455e29e67f3a4e2,611e07ecdcc96256ae8d5b80,611e7d543ebbefeb85056a53,
,,,,space,0.5631,,0,177,177,19,1,G, , , , ,space,1500,1.5,,001,2021-08-19_16h49.51.994,natb3,2021.2.3,Win32,60.04924038,6101b4c62455e29e67f3a4e2,611e07ecdcc96256ae8d5b80,611e7d543ebbefeb85056a53,
,,,,space,0.3632,,0,178,178,222,1,O, , , , ,space,2000,2,,001,2021-08-19_16h49.51.994,natb3,2021.2.3,Win32,60.04924038,6101b4c62455e29e67f3a4e2,611e07ecdcc96256ae8d5b80,611e7d543ebbefeb85056a53,
,,,,space,0.3683,,0,179,179,272,1,D, , , , ,space,2000,2,,001,2021-08-19_16h49.51.994,natb3,2021.2.3,Win32,60.04924038,6101b4c62455e29e67f3a4e2,611e07ecdcc96256ae8d5b80,611e7d543ebbefeb85056a53,
,,,,,,,0,180,180,179,1,X, ,9, ,2,,1500,1.5,,001,2021-08-19_16h49.51.994,natb3,2021.2.3,Win32,60.04924038,6101b4c62455e29e67f3a4e2,611e07ecdcc96256ae8d5b80,611e7d543ebbefeb85056a53,
,,,,space,0.3805,,0,181,181,206,1,V, , , , ,space,2000,2,,001,2021-08-19_16h49.51.994,natb3,2021.2.3,Win32,60.04924038,6101b4c62455e29e67f3a4e2,611e07ecdcc96256ae8d5b80,611e7d543ebbefeb85056a53,
,,,,space,0.3951,,0,182,182,10,1,O, , , , ,space,2000,2,,001,2021-08-19_16h49.51.994,natb3,2021.2.3,Win32,60.04924038,6101b4c62455e29e67f3a4e2,611e07ecdcc96256ae8d5b80,611e7d543ebbefeb85056a53,
,,,,space,0.3952,,0,183,183,321,1,N, , , , ,space,2000,2,,001,2021-08-19_16h49.51.994,natb3,2021.2.3,Win32,60.04924038,6101b4c62455e29e67f3a4e2,611e07ecdcc96256ae8d5b80,611e7d543ebbefeb85056a53,
,,,,space,0.3964,,0,184,184,269,1,A, , , , ,space,2500,2.5,,001,2021-08-19_16h49.51.994,natb3,2021.2.3,Win32,60.04924038,6101b4c62455e29e67f3a4e2,611e07ecdcc96256ae8d5b80,611e7d543ebbefeb85056a53,
,,,,space,0.3943,,0,185,185,71,1,R, , , , ,space,2500,2.5,,001,2021-08-19_16h49.51.994,natb3,2021.2.3,Win32,60.04924038,6101b4c62455e29e67f3a4e2,611e07ecdcc96256ae8d5b80,611e7d543ebbefeb85056a53,
,,,,,,,0,186,186,102,1,X, ,6, , ,,1500,1.5,,001,2021-08-19_16h49.51.994,natb3,2021.2.3,Win32,60.04924038,6101b4c62455e29e67f3a4e2,611e07ecdcc96256ae8d5b80,611e7d543ebbefeb85056a53,
,,,,space,0.6021,,0,187,187,254,1,M, , , , ,space,1500,1.5,,001,2021-08-19_16h49.51.994,natb3,2021.2.3,Win32,60.04924038,6101b4c62455e29e67f3a4e2,611e07ecdcc96256ae8d5b80,611e7d543ebbefeb85056a53,
,,,,,,,0,188,188,229,1,X,8, ,2,6,,2500,2.5,,001,2021-08-19_16h49.51.994,natb3,2021.2.3,Win32,60.04924038,6101b4c62455e29e67f3a4e2,611e07ecdcc96256ae8d5b80,611e7d543ebbefeb85056a53,
,,,,space,0.555,,0,189,189,264,1,U, , , , ,space,2000,2,,001,2021-08-19_16h49.51.994,natb3,2021.2.3,Win32,60.04924038,6101b4c62455e29e67f3a4e2,611e07ecdcc96256ae8d5b80,611e7d543ebbefeb85056a53,
,,,,,,,0,190,190,322,1,X, , ,1,6,,2000,2,,001,2021-08-19_16h49.51.994,natb3,2021.2.3,Win32,60.04924038,6101b4c62455e29e67f3a4e2,611e07ecdcc96256ae8d5b80,611e7d543ebbefeb85056a53,
,,,,space,0.3572,,0,191,191,210,1,M, , , , ,space,1500,1.5,,001,2021-08-19_16h49.51.994,natb3,2021.2.3,Win32,60.04924038,6101b4c62455e29e67f3a4e2,611e07ecdcc96256ae8d5b80,611e7d543ebbefeb85056a53,
,,,,space,0.4943,,0,192,192,34,1,Q, , , , ,space,2500,2.5,,001,2021-08-19_16h49.51.994,natb3,2021.2.3,Win32,60.04924038,6101b4c62455e29e67f3a4e2,611e07ecdcc96256ae8d5b80,611e7d543ebbefeb85056a53,
,,,,space,0.7311,,0,193,193,90,1,K, , , , ,space,2000,2,,001,2021-08-19_16h49.51.994,natb3,2021.2.3,Win32,60.04924038,6101b4c62455e29e67f3a4e2,611e07ecdcc96256ae8d5b80,611e7d543ebbefeb85056a53,
,,,,,,,0,194,194,311,1,X,1,2,7,3,,2500,2.5,,001,2021-08-19_16h49.51.994,natb3,2021.2.3,Win32,60.04924038,6101b4c62455e29e67f3a4e2,611e07ecdcc96256ae8d5b80,611e7d543ebbefeb85056a53,
,,,,space,0.5173,,0,195,195,308,1,G, , , , ,space,1500,1.5,,001,2021-08-19_16h49.51.994,natb3,2021.2.3,Win32,60.04924038,6101b4c62455e29e67f3a4e2,611e07ecdcc96256ae8d5b80,611e7d543ebbefeb85056a53,
,,,,,,,0,196,196,129,1,X,2,3,5, ,,1500,1.5,,001,2021-08-19_16h49.51.994,natb3,2021.2.3,Win32,60.04924038,6101b4c62455e29e67f3a4e2,611e07ecdcc96256ae8d5b80,611e7d543ebbefeb85056a53,
,,,,space,0.8834,,0,197,197,314,1,L, , , , ,space,1500,1.5,,001,2021-08-19_16h49.51.994,natb3,2021.2.3,Win32,60.04924038,6101b4c62455e29e67f3a4e2,611e07ecdcc96256ae8d5b80,611e7d543ebbefeb85056a53,
,,,,space,0.6863,,0,198,198,250,1,V, , , , ,space,2000,2,,001,2021-08-19_16h49.51.994,natb3,2021.2.3,Win32,60.04924038,6101b4c62455e29e67f3a4e2,611e07ecdcc96256ae8d5b80,611e7d543ebbefeb85056a53,
,,,,space,0.4242,,0,199,199,100,1,M, , , , ,space,2000,2,,001,2021-08-19_16h49.51.994,natb3,2021.2.3,Win32,60.04924038,6101b4c62455e29e67f3a4e2,611e07ecdcc96256ae8d5b80,611e7d543ebbefeb85056a53,
,,,,space,0.3846,,0,200,200,7,1,X, , , , ,,1500,1.5,,001,2021-08-19_16h49.51.994,natb3,2021.2.3,Win32,60.04924038,6101b4c62455e29e67f3a4e2,611e07ecdcc96256ae8d5b80,611e7d543ebbefeb85056a53,
,,,,space,0.371,,0,201,201,165,1,J, , , , ,space,2500,2.5,,001,2021-08-19_16h49.51.994,natb3,2021.2.3,Win32,60.04924038,6101b4c62455e29e67f3a4e2,611e07ecdcc96256ae8d5b80,611e7d543ebbefeb85056a53,
,,,,,,,0,202,202,252,1,X,3, ,6,9,,2000,2,,001,2021-08-19_16h49.51.994,natb3,2021.2.3,Win32,60.04924038,6101b4c62455e29e67f3a4e2,611e07ecdcc96256ae8d5b80,611e7d543ebbefeb85056a53,
,,,,space,0.4382,,0,203,203,333,1,I, , , , ,space,1500,1.5,,001,2021-08-19_16h49.51.994,natb3,2021.2.3,Win32,60.04924038,6101b4c62455e29e67f3a4e2,611e07ecdcc96256ae8d5b80,611e7d543ebbefeb85056a53,
,,,,space,0.5927,,0,204,204,47,1,P, , , , ,space,2000,2,,001,2021-08-19_16h49.51.994,natb3,2021.2.3,Win32,60.04924038,6101b4c62455e29e67f3a4e2,611e07ecdcc96256ae8d5b80,611e7d543ebbefeb85056a53,
,,,,,,,0,205,205,315,1,X, , , , ,,2500,2.5,,001,2021-08-19_16h49.51.994,natb3,2021.2.3,Win32,60.04924038,6101b4c62455e29e67f3a4e2,611e07ecdcc96256ae8d5b80,611e7d543ebbefeb85056a53,
,,,,,,,0,206,206,74,1,X, ,4,3,2,,1500,1.5,,001,2021-08-19_16h49.51.994,natb3,2021.2.3,Win32,60.04924038,6101b4c62455e29e67f3a4e2,611e07ecdcc96256ae8d5b80,611e7d543ebbefeb85056a53,
,,,,,,,0,207,207,98,1,X, , , , ,,2500,2.5,,001,2021-08-19_16h49.51.994,natb3,2021.2.3,Win32,60.04924038,6101b4c62455e29e67f3a4e2,611e07ecdcc96256ae8d5b80,611e7d543ebbefeb85056a53,
,,,,,,,0,208,208,25,1,Z, , , , ,space,2500,2.5,,001,2021-08-19_16h49.51.994,natb3,2021.2.3,Win32,60.04924038,6101b4c62455e29e67f3a4e2,611e07ecdcc96256ae8d5b80,611e7d543ebbefeb85056a53,
,,,,,,,0,209,209,318,1,X, , , , ,,1500,1.5,,001,2021-08-19_16h49.51.994,natb3,2021.2.3,Win32,60.04924038,6101b4c62455e29e67f3a4e2,611e07ecdcc96256ae8d5b80,611e7d543ebbefeb85056a53,
,,,,space,0.5791,,0,210,210,44,1,I, , , , ,space,2500,2.5,,001,2021-08-19_16h49.51.994,natb3,2021.2.3,Win32,60.04924038,6101b4c62455e29e67f3a4e2,611e07ecdcc96256ae8d5b80,611e7d543ebbefeb85056a53,
,,,,space,0.4333,,0,211,211,261,1,T, , , , ,space,2000,2,,001,2021-08-19_16h49.51.994,natb3,2021.2.3,Win32,60.04924038,6101b4c62455e29e67f3a4e2,611e07ecdcc96256ae8d5b80,611e7d543ebbefeb85056a53,
,,,,space,0.4019,,0,212,212,216,1,R, , , , ,space,1500,1.5,,001,2021-08-19_16h49.51.994,natb3,2021.2.3,Win32,60.04924038,6101b4c62455e29e67f3a4e2,611e07ecdcc96256ae8d5b80,611e7d543ebbefeb85056a53,
,,,,space,0.3637,,0,213,213,197,1,G, , , , ,space,2500,2.5,,001,2021-08-19_16h49.51.994,natb3,2021.2.3,Win32,60.04924038,6101b4c62455e29e67f3a4e2,611e07ecdcc96256ae8d5b80,611e7d543ebbefeb85056a53,
,,,,space,0.4057,,0,214,214,42,1,U, , , , ,space,1500,1.5,,001,2021-08-19_16h49.51.994,natb3,2021.2.3,Win32,60.04924038,6101b4c62455e29e67f3a4e2,611e07ecdcc96256ae8d5b80,611e7d543ebbefeb85056a53,
,,,,space,0.3544,,0,215,215,124,1,P, , , , ,space,2000,2,,001,2021-08-19_16h49.51.994,natb3,2021.2.3,Win32,60.04924038,6101b4c62455e29e67f3a4e2,611e07ecdcc96256ae8d5b80,611e7d543ebbefeb85056a53,
,,,,space,0.3818,,0,216,216,84,1,X, , , , ,,2000,2,,001,2021-08-19_16h49.51.994,natb3,2021.2.3,Win32,60.04924038,6101b4c62455e29e67f3a4e2,611e07ecdcc96256ae8d5b80,611e7d543ebbefeb85056a53,
,,,,space,0.5805,,0,217,217,190,1,P, , , , ,space,2000,2,,001,2021-08-19_16h49.51.994,natb3,2021.2.3,Win32,60.04924038,6101b4c62455e29e67f3a4e2,611e07ecdcc96256ae8d5b80,611e7d543ebbefeb85056a53,
,,,,space,0.4351,,0,218,218,174,1,B, , , , ,space,2500,2.5,,001,2021-08-19_16h49.51.994,natb3,2021.2.3,Win32,60.04924038,6101b4c62455e29e67f3a4e2,611e07ecdcc96256ae8d5b80,611e7d543ebbefeb85056a53,
,,,,space,0.6259,,0,219,219,326,1,W, , , , ,space,2000,2,,001,2021-08-19_16h49.51.994,natb3,2021.2.3,Win32,60.04924038,6101b4c62455e29e67f3a4e2,611e07ecdcc96256ae8d5b80,611e7d543ebbefeb85056a53,
,,,,space,0.4342,,0,220,220,163,1,G, , , , ,space,2500,2.5,,001,2021-08-19_16h49.51.994,natb3,2021.2.3,Win32,60.04924038,6101b4c62455e29e67f3a4e2,611e07ecdcc96256ae8d5b80,611e7d543ebbefeb85056a53,
,,,,,,,0,221,221,248,1,X, ,1,5, ,,1500,1.5,,001,2021-08-19_16h49.51.994,natb3,2021.2.3,Win32,60.04924038,6101b4c62455e29e67f3a4e2,611e07ecdcc96256ae8d5b80,611e7d543ebbefeb85056a53,
,,,,space,0.4215,,0,222,222,240,1,F, , , , ,space,2500,2.5,,001,2021-08-19_16h49.51.994,natb3,2021.2.3,Win32,60.04924038,6101b4c62455e29e67f3a4e2,611e07ecdcc96256ae8d5b80,611e7d543ebbefeb85056a53,
,,,,space,0.4517,,0,223,223,160,1,D, , , , ,space,1500,1.5,,001,2021-08-19_16h49.51.994,natb3,2021.2.3,Win32,60.04924038,6101b4c62455e29e67f3a4e2,611e07ecdcc96256ae8d5b80,611e7d543ebbefeb85056a53,
,,,,space,0.3908,,0,224,224,104,1,E, , , , ,space,2000,2,,001,2021-08-19_16h49.51.994,natb3,2021.2.3,Win32,60.04924038,6101b4c62455e29e67f3a4e2,611e07ecdcc96256ae8d5b80,611e7d543ebbefeb85056a53,
,,,,space,0.3916,,0,225,225,289,1,Q, , , , ,space,2000,2,,001,2021-08-19_16h49.51.994,natb3,2021.2.3,Win32,60.04924038,6101b4c62455e29e67f3a4e2,611e07ecdcc96256ae8d5b80,611e7d543ebbefeb85056a53,
,,,,,,,0,226,226,18,1,X, ,2,5,8,,2500,2.5,,001,2021-08-19_16h49.51.994,natb3,2021.2.3,Win32,60.04924038,6101b4c62455e29e67f3a4e2,611e07ecdcc96256ae8d5b80,611e7d543ebbefeb85056a53,
,,,,,,,0,227,227,33,1,X, , , , ,,1500,1.5,,001,2021-08-19_16h49.51.994,natb3,2021.2.3,Win32,60.04924038,6101b4c62455e29e67f3a4e2,611e07ecdcc96256ae8d5b80,611e7d543ebbefeb85056a53,
,,,,,,,0,228,228,255,1,X, , , , ,,1500,1.5,,001,2021-08-19_16h49.51.994,natb3,2021.2.3,Win32,60.04924038,6101b4c62455e29e67f3a4e2,611e07ecdcc96256ae8d5b80,611e7d543ebbefeb85056a53,
,,,,space,0.5824,,0,229,229,281,1,Z, , , , ,space,1500,1.5,,001,2021-08-19_16h49.51.994,natb3,2021.2.3,Win32,60.04924038,6101b4c62455e29e67f3a4e2,611e07ecdcc96256ae8d5b80,611e7d543ebbefeb85056a53,
,,,,,,,0,230,230,138,1,X,8,5, ,3,,2000,2,,001,2021-08-19_16h49.51.994,natb3,2021.2.3,Win32,60.04924038,6101b4c62455e29e67f3a4e2,611e07ecdcc96256ae8d5b80,611e7d543ebbefeb85056a53,
,,,,space,0.452,,0,231,231,310,1,J, , , , ,space,2500,2.5,,001,2021-08-19_16h49.51.994,natb3,2021.2.3,Win32,60.04924038,6101b4c62455e29e67f3a4e2,611e07ecdcc96256ae8d5b80,611e7d543ebbefeb85056a53,
,,,,space,0.5046,,0,232,232,224,1,W, , , , ,space,1500,1.5,,001,2021-08-19_16h49.51.994,natb3,2021.2.3,Win32,60.04924038,6101b4c62455e29e67f3a4e2,611e07ecdcc96256ae8d5b80,611e7d543ebbefeb85056a53,
,,,,space,0.4704,,0,233,233,307,1,F, , , , ,space,2500,2.5,,001,2021-08-19_16h49.51.994,natb3,2021.2.3,Win32,60.04924038,6101b4c62455e29e67f3a4e2,611e07ecdcc96256ae8d5b80,611e7d543ebbefeb85056a53,
,,,,space,0.4874,,0,234,234,108,1,Y, , , , ,space,2500,2.5,,001,2021-08-19_16h49.51.994,natb3,2021.2.3,Win32,60.04924038,6101b4c62455e29e67f3a4e2,611e07ecdcc96256ae8d5b80,611e7d543ebbefeb85056a53,
,,,,,,,0,235,235,54,1,X, , , , ,,2000,2,,001,2021-08-19_16h49.51.994,natb3,2021.2.3,Win32,60.04924038,6101b4c62455e29e67f3a4e2,611e07ecdcc96256ae8d5b80,611e7d543ebbefeb85056a53,
,,,,,,,0,236,236,122,1,X,1, , ,8,,1500,1.5,,001,2021-08-19_16h49.51.994,natb3,2021.2.3,Win32,60.04924038,6101b4c62455e29e67f3a4e2,611e07ecdcc96256ae8d5b80,611e7d543ebbefeb85056a53,
,,,,space,0.4523,,0,237,237,257,1,W, , , , ,space,2000,2,,001,2021-08-19_16h49.51.994,natb3,2021.2.3,Win32,60.04924038,6101b4c62455e29e67f3a4e2,611e07ecdcc96256ae8d5b80,611e7d543ebbefeb85056a53,
,,,,space,0.3917,,0,238,238,49,1,S, , , , ,space,1500,1.5,,001,2021-08-19_16h49.51.994,natb3,2021.2.3,Win32,60.04924038,6101b4c62455e29e67f3a4e2,611e07ecdcc96256ae8d5b80,611e7d543ebbefeb85056a53,
,,,,space,0.391,,0,239,239,212,1,Q, , , , ,space,2500,2.5,,001,2021-08-19_16h49.51.994,natb3,2021.2.3,Win32,60.04924038,6101b4c62455e29e67f3a4e2,611e07ecdcc96256ae8d5b80,611e7d543ebbefeb85056a53,
,,,,space,0.3708,,0,240,240,26,1,C, , , , ,space,2000,2,,001,2021-08-19_16h49.51.994,natb3,2021.2.3,Win32,60.04924038,6101b4c62455e29e67f3a4e2,611e07ecdcc96256ae8d5b80,611e7d543ebbefeb85056a53,
,,,,,,,0,241,241,313,1,X, , , , ,,2500,2.5,,001,2021-08-19_16h49.51.994,natb3,2021.2.3,Win32,60.04924038,6101b4c62455e29e67f3a4e2,611e07ecdcc96256ae8d5b80,611e7d543ebbefeb85056a53,
,,,,,,,0,242,242,305,1,X, , , , ,,1500,1.5,,001,2021-08-19_16h49.51.994,natb3,2021.2.3,Win32,60.04924038,6101b4c62455e29e67f3a4e2,611e07ecdcc96256ae8d5b80,611e7d543ebbefeb85056a53,
,,,,space,0.5634,,0,243,243,85,1,F, , , , ,space,2500,2.5,,001,2021-08-19_16h49.51.994,natb3,2021.2.3,Win32,60.04924038,6101b4c62455e29e67f3a4e2,611e07ecdcc96256ae8d5b80,611e7d543ebbefeb85056a53,
,,,,space,0.3892,,0,244,244,94,1,C, , , , ,space,2000,2,,001,2021-08-19_16h49.51.994,natb3,2021.2.3,Win32,60.04924038,6101b4c62455e29e67f3a4e2,611e07ecdcc96256ae8d5b80,611e7d543ebbefeb85056a53,
,,,,space,0.365,,0,245,245,204,1,Z, , , , ,space,2000,2,,001,2021-08-19_16h49.51.994,natb3,2021.2.3,Win32,60.04924038,6101b4c62455e29e67f3a4e2,611e07ecdcc96256ae8d5b80,611e7d543ebbefeb85056a53,
,,,,,,,0,246,246,299,1,X, , , , ,,2500,2.5,,001,2021-08-19_16h49.51.994,natb3,2021.2.3,Win32,60.04924038,6101b4c62455e29e67f3a4e2,611e07ecdcc96256ae8d5b80,611e7d543ebbefeb85056a53,
,,,,space,0.4841,,0,247,247,231,1,I, , , , ,space,2500,2.5,,001,2021-08-19_16h49.51.994,natb3,2021.2.3,Win32,60.04924038,6101b4c62455e29e67f3a4e2,611e07ecdcc96256ae8d5b80,611e7d543ebbefeb85056a53,
,,,,space,0.5684,,0,248,248,167,1,K, , , , ,space,1500,1.5,,001,2021-08-19_16h49.51.994,natb3,2021.2.3,Win32,60.04924038,6101b4c62455e29e67f3a4e2,611e07ecdcc96256ae8d5b80,611e7d543ebbefeb85056a53,
,,,,,,,0,249,249,82,1,X,4,6,1,7,,2000,2,,001,2021-08-19_16h49.51.994,natb3,2021.2.3,Win32,60.04924038,6101b4c62455e29e67f3a4e2,611e07ecdcc96256ae8d5b80,611e7d543ebbefeb85056a53,
,,,,,,,0,250,250,175,1,X,7, ,4,2,,1500,1.5,,001,2021-08-19_16h49.51.994,natb3,2021.2.3,Win32,60.04924038,6101b4c62455e29e67f3a4e2,611e07ecdcc96256ae8d5b80,611e7d543ebbefeb85056a53,
,,,,,,,0,251,251,126,1,A, , , , ,space,2500,2.5,,001,2021-08-19_16h49.51.994,natb3,2021.2.3,Win32,60.04924038,6101b4c62455e29e67f3a4e2,611e07ecdcc96256ae8d5b80,611e7d543ebbefeb85056a53,
,,,,space,0.5291,,0,252,252,201,1,K, , , , ,space,1500,1.5,,001,2021-08-19_16h49.51.994,natb3,2021.2.3,Win32,60.04924038,6101b4c62455e29e67f3a4e2,611e07ecdcc96256ae8d5b80,611e7d543ebbefeb85056a53,
,,,,space,0.6187,,0,253,253,170,1,Z, , , , ,space,2000,2,,001,2021-08-19_16h49.51.994,natb3,2021.2.3,Win32,60.04924038,6101b4c62455e29e67f3a4e2,611e07ecdcc96256ae8d5b80,611e7d543ebbefeb85056a53,
,,,,space,0.6475,,0,254,254,178,1,Q, , , , ,space,1500,1.5,,001,2021-08-19_16h49.51.994,natb3,2021.2.3,Win32,60.04924038,6101b4c62455e29e67f3a4e2,611e07ecdcc96256ae8d5b80,611e7d543ebbefeb85056a53,
,,,,,,,0,255,255,335,1,P,,,,,space,1500,1.5,,001,2021-08-19_16h49.51.994,natb3,2021.2.3,Win32,60.04924038,6101b4c62455e29e67f3a4e2,611e07ecdcc96256ae8d5b80,611e7d543ebbefeb85056a53,
,,,,,,,0,256,256,277,1,X,8,5, ,2,,2000,2,,001,2021-08-19_16h49.51.994,natb3,2021.2.3,Win32,60.04924038,6101b4c62455e29e67f3a4e2,611e07ecdcc96256ae8d5b80,611e7d543ebbefeb85056a53,
,,,,space,0.7222,,0,257,257,151,1,Y, , , , ,space,2500,2.5,,001,2021-08-19_16h49.51.994,natb3,2021.2.3,Win32,60.04924038,6101b4c62455e29e67f3a4e2,611e07ecdcc96256ae8d5b80,611e7d543ebbefeb85056a53,
,,,,,,,0,258,258,141,1,X,1, ,4,6,,1500,1.5,,001,2021-08-19_16h49.51.994,natb3,2021.2.3,Win32,60.04924038,6101b4c62455e29e67f3a4e2,611e07ecdcc96256ae8d5b80,611e7d543ebbefeb85056a53,
,,,,,,,0,259,259,116,1,X, , , , ,,2000,2,,001,2021-08-19_16h49.51.994,natb3,2021.2.3,Win32,60.04924038,6101b4c62455e29e67f3a4e2,611e07ecdcc96256ae8d5b80,611e7d543ebbefeb85056a53,
,,,,,,,0,260,260,268,1,X,6, ,3, ,,2500,2.5,,001,2021-08-19_16h49.51.994,natb3,2021.2.3,Win32,60.04924038,6101b4c62455e29e67f3a4e2,611e07ecdcc96256ae8d5b80,611e7d543ebbefeb85056a53,
,,,,,,,0,261,261,267,1,P, , , , ,space,2000,2,,001,2021-08-19_16h49.51.994,natb3,2021.2.3,Win32,60.04924038,6101b4c62455e29e67f3a4e2,611e07ecdcc96256ae8d5b80,611e7d543ebbefeb85056a53,
,,,,space,0.4376,,0,262,262,86,1,G, , , , ,space,2000,2,,001,2021-08-19_16h49.51.994,natb3,2021.2.3,Win32,60.04924038,6101b4c62455e29e67f3a4e2,611e07ecdcc96256ae8d5b80,611e7d543ebbefeb85056a53,
,,,,space,0.8386,,0,263,263,13,1,A, , , , ,space,2000,2,,001,2021-08-19_16h49.51.994,natb3,2021.2.3,Win32,60.04924038,6101b4c62455e29e67f3a4e2,611e07ecdcc96256ae8d5b80,611e7d543ebbefeb85056a53,
,,,,space,0.498,,0,264,264,324,1,Q, , , , ,space,2000,2,,001,2021-08-19_16h49.51.994,natb3,2021.2.3,Win32,60.04924038,6101b4c62455e29e67f3a4e2,611e07ecdcc96256ae8d5b80,611e7d543ebbefeb85056a53,
,,,,space,0.5965,,0,265,265,154,1,I, , , , ,space,2500,2.5,,001,2021-08-19_16h49.51.994,natb3,2021.2.3,Win32,60.04924038,6101b4c62455e29e67f3a4e2,611e07ecdcc96256ae8d5b80,611e7d543ebbefeb85056a53,
,,,,space,0.4023,,0,266,266,199,1,J, , , , ,space,2500,2.5,,001,2021-08-19_16h49.51.994,natb3,2021.2.3,Win32,60.04924038,6101b4c62455e29e67f3a4e2,611e07ecdcc96256ae8d5b80,611e7d543ebbefeb85056a53,
,,,,space,0.4176,,0,267,267,309,1,H, , , , ,space,2500,2.5,,001,2021-08-19_16h49.51.994,natb3,2021.2.3,Win32,60.04924038,6101b4c62455e29e67f3a4e2,611e07ecdcc96256ae8d5b80,611e7d543ebbefeb85056a53,
,,,,space,0.3554,,0,268,268,260,1,R, , , , ,space,2000,2,,001,2021-08-19_16h49.51.994,natb3,2021.2.3,Win32,60.04924038,6101b4c62455e29e67f3a4e2,611e07ecdcc96256ae8d5b80,611e7d543ebbefeb85056a53,
,,,,space,0.3148,,0,269,269,253,1,N, , , , ,space,2500,2.5,,001,2021-08-19_16h49.51.994,natb3,2021.2.3,Win32,60.04924038,6101b4c62455e29e67f3a4e2,611e07ecdcc96256ae8d5b80,611e7d543ebbefeb85056a53,
,,,,space,0.3778,,0,270,270,228,1,Y, , , , ,space,2000,2,,001,2021-08-19_16h49.51.994,natb3,2021.2.3,Win32,60.04924038,6101b4c62455e29e67f3a4e2,611e07ecdcc96256ae8d5b80,611e7d543ebbefeb85056a53,
,,,,space,0.406,,0,271,271,329,1,X,3,4, ,2,,2500,2.5,,001,2021-08-19_16h49.51.994,natb3,2021.2.3,Win32,60.04924038,6101b4c62455e29e67f3a4e2,611e07ecdcc96256ae8d5b80,611e7d543ebbefeb85056a53,
,,,,,,,0,272,272,191,1,X,1, ,3,4,,2500,2.5,,001,2021-08-19_16h49.51.994,natb3,2021.2.3,Win32,60.04924038,6101b4c62455e29e67f3a4e2,611e07ecdcc96256ae8d5b80,611e7d543ebbefeb85056a53,
,,,,space,0.313,,0,273,273,183,1,R, , , , ,space,1500,1.5,,001,2021-08-19_16h49.51.994,natb3,2021.2.3,Win32,60.04924038,6101b4c62455e29e67f3a4e2,611e07ecdcc96256ae8d5b80,611e7d543ebbefeb85056a53,
,,,,space,0.4144,,0,274,274,225,1,E, , , , ,space,2000,2,,001,2021-08-19_16h49.51.994,natb3,2021.2.3,Win32,60.04924038,6101b4c62455e29e67f3a4e2,611e07ecdcc96256ae8d5b80,611e7d543ebbefeb85056a53,
,,,,space,0.463,,0,275,275,156,1,P, , , , ,space,1500,1.5,,001,2021-08-19_16h49.51.994,natb3,2021.2.3,Win32,60.04924038,6101b4c62455e29e67f3a4e2,611e07ecdcc96256ae8d5b80,611e7d543ebbefeb85056a53,
,,,,space,0.3649,,0,276,276,3,1,R, , , , ,space,2000,2,,001,2021-08-19_16h49.51.994,natb3,2021.2.3,Win32,60.04924038,6101b4c62455e29e67f3a4e2,611e07ecdcc96256ae8d5b80,611e7d543ebbefeb85056a53,
,,,,space,0.3664,,0,277,277,128,1,D, , , , ,space,2500,2.5,,001,2021-08-19_16h49.51.994,natb3,2021.2.3,Win32,60.04924038,6101b4c62455e29e67f3a4e2,611e07ecdcc96256ae8d5b80,611e7d543ebbefeb85056a53,
,,,,space,0.5864,,0,278,278,2,1,E, , , , ,space,2500,2.5,,001,2021-08-19_16h49.51.994,natb3,2021.2.3,Win32,60.04924038,6101b4c62455e29e67f3a4e2,611e07ecdcc96256ae8d5b80,611e7d543ebbefeb85056a53,
,,,,,,,0,279,279,66,1,X, ,4,7, ,,2000,2,,001,2021-08-19_16h49.51.994,natb3,2021.2.3,Win32,60.04924038,6101b4c62455e29e67f3a4e2,611e07ecdcc96256ae8d5b80,611e7d543ebbefeb85056a53,
,,,,space,0.5543,,0,280,280,41,1,Y, , , , ,space,2500,2.5,,001,2021-08-19_16h49.51.994,natb3,2021.2.3,Win32,60.04924038,6101b4c62455e29e67f3a4e2,611e07ecdcc96256ae8d5b80,611e7d543ebbefeb85056a53,
,,,,space,0.916,,0,281,281,120,1,U, , , , ,space,1500,1.5,,001,2021-08-19_16h49.51.994,natb3,2021.2.3,Win32,60.04924038,6101b4c62455e29e67f3a4e2,611e07ecdcc96256ae8d5b80,611e7d543ebbefeb85056a53,
,,,,space,0.4293,,0,282,282,6,1,Y, , , , ,space,2500,2.5,,001,2021-08-19_16h49.51.994,natb3,2021.2.3,Win32,60.04924038,6101b4c62455e29e67f3a4e2,611e07ecdcc96256ae8d5b80,611e7d543ebbefeb85056a53,
,,,,space,0.3858,,0,283,283,184,1,T, , , , ,space,2000,2,,001,2021-08-19_16h49.51.994,natb3,2021.2.3,Win32,60.04924038,6101b4c62455e29e67f3a4e2,611e07ecdcc96256ae8d5b80,611e7d543ebbefeb85056a53,
,,,,space,0.4009,,0,284,284,97,1,B, , , , ,space,2500,2.5,,001,2021-08-19_16h49.51.994,natb3,2021.2.3,Win32,60.04924038,6101b4c62455e29e67f3a4e2,611e07ecdcc96256ae8d5b80,611e7d543ebbefeb85056a53,
,,,,space,0.4062,,0,285,285,319,1,V, , , , ,space,2000,2,,001,2021-08-19_16h49.51.994,natb3,2021.2.3,Win32,60.04924038,6101b4c62455e29e67f3a4e2,611e07ecdcc96256ae8d5b80,611e7d543ebbefeb85056a53,
,,,,space,0.2965,,0,286,286,265,1,I, , , , ,space,2000,2,,001,2021-08-19_16h49.51.994,natb3,2021.2.3,Win32,60.04924038,6101b4c62455e29e67f3a4e2,611e07ecdcc96256ae8d5b80,611e7d543ebbefeb85056a53,
,,,,space,0.3323,,0,287,287,185,1,Y, , , , ,space,2500,2.5,,001,2021-08-19_16h49.51.994,natb3,2021.2.3,Win32,60.04924038,6101b4c62455e29e67f3a4e2,611e07ecdcc96256ae8d5b80,611e7d543ebbefeb85056a53,
,,,,space,0.4292,,0,288,288,75,1,U, , , , ,space,1500,1.5,,001,2021-08-19_16h49.51.994,natb3,2021.2.3,Win32,60.04924038,6101b4c62455e29e67f3a4e2,611e07ecdcc96256ae8d5b80,611e7d543ebbefeb85056a53,
,,,,space,0.3263,,0,289,289,152,1,U, , , , ,space,2000,2,,001,2021-08-19_16h49.51.994,natb3,2021.2.3,Win32,60.04924038,6101b4c62455e29e67f3a4e2,611e07ecdcc96256ae8d5b80,611e7d543ebbefeb85056a53,
,,,,space,0.4089,,0,290,290,92,1,Z, , , , ,space,1500,1.5,,001,2021-08-19_16h49.51.994,natb3,2021.2.3,Win32,60.04924038,6101b4c62455e29e67f3a4e2,611e07ecdcc96256ae8d5b80,611e7d543ebbefeb85056a53,
,,,,,,,0,291,291,171,1,X, , , , ,,1500,1.5,,001,2021-08-19_16h49.51.994,natb3,2021.2.3,Win32,60.04924038,6101b4c62455e29e67f3a4e2,611e07ecdcc96256ae8d5b80,611e7d543ebbefeb85056a53,
,,,,,,,0,292,292,23,1,X,1, ,5, ,,2000,2,,001,2021-08-19_16h49.51.994,natb3,2021.2.3,Win32,60.04924038,6101b4c62455e29e67f3a4e2,611e07ecdcc96256ae8d5b80,611e7d543ebbefeb85056a53,
,,,,space,0.4593,,0,293,293,9,1,I, , , , ,space,1500,1.5,,001,2021-08-19_16h49.51.994,natb3,2021.2.3,Win32,60.04924038,6101b4c62455e29e67f3a4e2,611e07ecdcc96256ae8d5b80,611e7d543ebbefeb85056a53,
,,,,space,0.4542,,0,294,294,150,1,T, , , , ,space,2500,2.5,,001,2021-08-19_16h49.51.994,natb3,2021.2.3,Win32,60.04924038,6101b4c62455e29e67f3a4e2,611e07ecdcc96256ae8d5b80,611e7d543ebbefeb85056a53,
,,,,space,0.8036,,0,295,295,155,1,O, , , , ,space,1500,1.5,,001,2021-08-19_16h49.51.994,natb3,2021.2.3,Win32,60.04924038,6101b4c62455e29e67f3a4e2,611e07ecdcc96256ae8d5b80,611e7d543ebbefeb85056a53,
,,,,space,0.4135,,0,296,296,296,1,Y, , , , ,space,2500,2.5,,001,2021-08-19_16h49.51.994,natb3,2021.2.3,Win32,60.04924038,6101b4c62455e29e67f3a4e2,611e07ecdcc96256ae8d5b80,611e7d543ebbefeb85056a53,
,,,,space,0.4379,,0,297,297,278,1,J, , , , ,space,2000,2,,001,2021-08-19_16h49.51.994,natb3,2021.2.3,Win32,60.04924038,6101b4c62455e29e67f3a4e2,611e07ecdcc96256ae8d5b80,611e7d543ebbefeb85056a53,
,,,,space,0.5055,,0,298,298,173,1,V, , , , ,space,1500,1.5,,001,2021-08-19_16h49.51.994,natb3,2021.2.3,Win32,60.04924038,6101b4c62455e29e67f3a4e2,611e07ecdcc96256ae8d5b80,611e7d543ebbefeb85056a53,
,,,,space,0.3186,,0,299,299,5,1,T, , , , ,space,2000,2,,001,2021-08-19_16h49.51.994,natb3,2021.2.3,Win32,60.04924038,6101b4c62455e29e67f3a4e2,611e07ecdcc96256ae8d5b80,611e7d543ebbefeb85056a53,
,,,,space,0.3875,,0,300,300,111,1,O, , , , ,space,2000,2,,001,2021-08-19_16h49.51.994,natb3,2021.2.3,Win32,60.04924038,6101b4c62455e29e67f3a4e2,611e07ecdcc96256ae8d5b80,611e7d543ebbefeb85056a53,
,,,,space,0.3479,,0,301,301,136,1,Z, , , , ,space,2500,2.5,,001,2021-08-19_16h49.51.994,natb3,2021.2.3,Win32,60.04924038,6101b4c62455e29e67f3a4e2,611e07ecdcc96256ae8d5b80,611e7d543ebbefeb85056a53,
,,,,space,0.3502,,0,302,302,127,1,S, , , , ,space,2500,2.5,,001,2021-08-19_16h49.51.994,natb3,2021.2.3,Win32,60.04924038,6101b4c62455e29e67f3a4e2,611e07ecdcc96256ae8d5b80,611e7d543ebbefeb85056a53,
,,,,space,0.3878,,0,303,303,230,1,U, , , , ,space,1500,1.5,,001,2021-08-19_16h49.51.994,natb3,2021.2.3,Win32,60.04924038,6101b4c62455e29e67f3a4e2,611e07ecdcc96256ae8d5b80,611e7d543ebbefeb85056a53,
,,,,space,0.3684,,0,304,304,67,1,Q, , , , ,space,2000,2,,001,2021-08-19_16h49.51.994,natb3,2021.2.3,Win32,60.04924038,6101b4c62455e29e67f3a4e2,611e07ecdcc96256ae8d5b80,611e7d543ebbefeb85056a53,
,,,,space,0.4088,,0,305,305,109,1,U, , , , ,space,1500,1.5,,001,2021-08-19_16h49.51.994,natb3,2021.2.3,Win32,60.04924038,6101b4c62455e29e67f3a4e2,611e07ecdcc96256ae8d5b80,611e7d543ebbefeb85056a53,
,,,,space,0.4866,,0,306,306,205,1,C, , , , ,space,2000,2,,001,2021-08-19_16h49.51.994,natb3,2021.2.3,Win32,60.04924038,6101b4c62455e29e67f3a4e2,611e07ecdcc96256ae8d5b80,611e7d543ebbefeb85056a53,
,,,,space,0.4681,,0,307,307,288,1,M, , , , ,space,1500,1.5,,001,2021-08-19_16h49.51.994,natb3,2021.2.3,Win32,60.04924038,6101b4c62455e29e67f3a4e2,611e07ecdcc96256ae8d5b80,611e7d543ebbefeb85056a53,
,,,,space,0.3928,,0,308,308,286,1,N, , , , ,space,1500,1.5,,001,2021-08-19_16h49.51.994,natb3,2021.2.3,Win32,60.04924038,6101b4c62455e29e67f3a4e2,611e07ecdcc96256ae8d5b80,611e7d543ebbefeb85056a53,
,,,,space,0.4195,,0,309,309,137,1,C, , , , ,space,2500,2.5,,001,2021-08-19_16h49.51.994,natb3,2021.2.3,Win32,60.04924038,6101b4c62455e29e67f3a4e2,611e07ecdcc96256ae8d5b80,611e7d543ebbefeb85056a53,
,,,,space,0.4268,,0,310,310,249,1,C, , , , ,space,2000,2,,001,2021-08-19_16h49.51.994,natb3,2021.2.3,Win32,60.04924038,6101b4c62455e29e67f3a4e2,611e07ecdcc96256ae8d5b80,611e7d543ebbefeb85056a53,
,,,,space,0.4552,,0,311,311,196,1,F, , , , ,space,1500,1.5,,001,2021-08-19_16h49.51.994,natb3,2021.2.3,Win32,60.04924038,6101b4c62455e29e67f3a4e2,611e07ecdcc96256ae8d5b80,611e7d543ebbefeb85056a53,
,,,,space,0.4203,,0,312,312,48,1,A, , , , ,space,2500,2.5,,001,2021-08-19_16h49.51.994,natb3,2021.2.3,Win32,60.04924038,6101b4c62455e29e67f3a4e2,611e07ecdcc96256ae8d5b80,611e7d543ebbefeb85056a53,
,,,,space,0.3473,,0,313,313,292,1,E, , , , ,space,2000,2,,001,2021-08-19_16h49.51.994,natb3,2021.2.3,Win32,60.04924038,6101b4c62455e29e67f3a4e2,611e07ecdcc96256ae8d5b80,611e7d543ebbefeb85056a53,
,,,,space,0.4611,,0,314,314,245,1,K, , , , ,space,2000,2,,001,2021-08-19_16h49.51.994,natb3,2021.2.3,Win32,60.04924038,6101b4c62455e29e67f3a4e2,611e07ecdcc96256ae8d5b80,611e7d543ebbefeb85056a53,
,,,,space,0.3377,,0,315,315,95,1,V, , , , ,space,1500,1.5,,001,2021-08-19_16h49.51.994,natb3,2021.2.3,Win32,60.04924038,6101b4c62455e29e67f3a4e2,611e07ecdcc96256ae8d5b80,611e7d543ebbefeb85056a53,
,,,,space,0.3622,,0,316,316,223,1,Q, , , , ,space,2000,2,,001,2021-08-19_16h49.51.994,natb3,2021.2.3,Win32,60.04924038,6101b4c62455e29e67f3a4e2,611e07ecdcc96256ae8d5b80,611e7d543ebbefeb85056a53,
,,,,,,,0,317,317,182,1,X, , , , ,,1500,1.5,,001,2021-08-19_16h49.51.994,natb3,2021.2.3,Win32,60.04924038,6101b4c62455e29e67f3a4e2,611e07ecdcc96256ae8d5b80,611e7d543ebbefeb85056a53,
,,,,,,,0,318,318,78,1,X, , , , ,,2000,2,,001,2021-08-19_16h49.51.994,natb3,2021.2.3,Win32,60.04924038,6101b4c62455e29e67f3a4e2,611e07ecdcc96256ae8d5b80,611e7d543ebbefeb85056a53,
,,,,space,0.4492,,0,319,319,214,1,W, , , , ,space,2000,2,,001,2021-08-19_16h49.51.994,natb3,2021.2.3,Win32,60.04924038,6101b4c62455e29e67f3a4e2,611e07ecdcc96256ae8d5b80,611e7d543ebbefeb85056a53,
,,,,space,0.4075,,0,320,320,37,1,E, , , , ,space,2500,2.5,,001,2021-08-19_16h49.51.994,natb3,2021.2.3,Win32,60.04924038,6101b4c62455e29e67f3a4e2,611e07ecdcc96256ae8d5b80,611e7d543ebbefeb85056a53,
,,,,space,0.4409,,0,321,321,0,1,Q, , , , ,space,1500,1.5,,001,2021-08-19_16h49.51.994,natb3,2021.2.3,Win32,60.04924038,6101b4c62455e29e67f3a4e2,611e07ecdcc96256ae8d5b80,611e7d543ebbefeb85056a53,
,,,,,,,0,322,322,107,1,X,9,3, ,2,,2000,2,,001,2021-08-19_16h49.51.994,natb3,2021.2.3,Win32,60.04924038,6101b4c62455e29e67f3a4e2,611e07ecdcc96256ae8d5b80,611e7d543ebbefeb85056a53,
,,,,space,0.5205,,0,323,323,181,1,E, , , , ,space,1500,1.5,,001,2021-08-19_16h49.51.994,natb3,2021.2.3,Win32,60.04924038,6101b4c62455e29e67f3a4e2,611e07ecdcc96256ae8d5b80,611e7d543ebbefeb85056a53,
,,,,space,0.4819,,0,324,324,238,1,D, , , , ,space,1500,1.5,,001,2021-08-19_16h49.51.994,natb3,2021.2.3,Win32,60.04924038,6101b4c62455e29e67f3a4e2,611e07ecdcc96256ae8d5b80,611e7d543ebbefeb85056a53,
,,,,,,,0,325,325,39,1,X,6,2, , ,,1500,1.5,,001,2021-08-19_16h49.51.994,natb3,2021.2.3,Win32,60.04924038,6101b4c62455e29e67f3a4e2,611e07ecdcc96256ae8d5b80,611e7d543ebbefeb85056a53,
,,,,,,,0,326,326,283,1,C, , , , ,space,1500,1.5,,001,2021-08-19_16h49.51.994,natb3,2021.2.3,Win32,60.04924038,6101b4c62455e29e67f3a4e2,611e07ecdcc96256ae8d5b80,611e7d543ebbefeb85056a53,
,,,,space,0.392,,0,327,327,172,1,C, , , , ,space,1500,1.5,,001,2021-08-19_16h49.51.994,natb3,2021.2.3,Win32,60.04924038,6101b4c62455e29e67f3a4e2,611e07ecdcc96256ae8d5b80,611e7d543ebbefeb85056a53,
,,,,space,0.4092,,0,328,328,280,1,L, , , , ,space,1500,1.5,,001,2021-08-19_16h49.51.994,natb3,2021.2.3,Win32,60.04924038,6101b4c62455e29e67f3a4e2,611e07ecdcc96256ae8d5b80,611e7d543ebbefeb85056a53,
,,,,space,0.427,,0,329,329,300,1,O, , , , ,space,2500,2.5,,001,2021-08-19_16h49.51.994,natb3,2021.2.3,Win32,60.04924038,6101b4c62455e29e67f3a4e2,611e07ecdcc96256ae8d5b80,611e7d543ebbefeb85056a53,
,,,,,,,0,330,330,203,1,X, , , , ,,2500,2.5,,001,2021-08-19_16h49.51.994,natb3,2021.2.3,Win32,60.04924038,6101b4c62455e29e67f3a4e2,611e07ecdcc96256ae8d5b80,611e7d543ebbefeb85056a53,
,,,,space,0.4072,,0,331,331,45,1,O, , , , ,space,2000,2,,001,2021-08-19_16h49.51.994,natb3,2021.2.3,Win32,60.04924038,6101b4c62455e29e67f3a4e2,611e07ecdcc96256ae8d5b80,611e7d543ebbefeb85056a53,
,,,,space,0.4741,,0,332,332,83,1,D, , , , ,space,2000,2,,001,2021-08-19_16h49.51.994,natb3,2021.2.3,Win32,60.04924038,6101b4c62455e29e67f3a4e2,611e07ecdcc96256ae8d5b80,611e7d543ebbefeb85056a53,
,,,,space,0.5805,,0,333,333,115,1,R, , , , ,space,1500,1.5,,001,2021-08-19_16h49.51.994,natb3,2021.2.3,Win32,60.04924038,6101b4c62455e29e67f3a4e2,611e07ecdcc96256ae8d5b80,611e7d543ebbefeb85056a53,
,,,,space,0.3302,,0,334,334,101,1,Q, , , , ,space,2500,2.5,,001,2021-08-19_16h49.51.994,natb3,2021.2.3,Win32,60.04924038,6101b4c62455e29e67f3a4e2,611e07ecdcc96256ae8d5b80,611e7d543ebbefeb85056a53,
,,,,space,0.3187,,0,335,335,176,1,N, , , , ,space,1500,1.5,,001,2021-08-19_16h49.51.994,natb3,2021.2.3,Win32,60.04924038,6101b4c62455e29e67f3a4e2,611e07ecdcc96256ae8d5b80,611e7d543ebbefeb85056a53,
