key_resp_2.keys,key_resp_2.rt,key_resp_3.keys,key_resp_3.rt,key_resp.keys,key_resp_4.keys,trials.thisRepN,trials.thisTrialN,trials.thisN,trials.thisIndex,trials.ran,stimulus,distractor1,distractor2,distractor3,distractor4,CorrAns,isi_duration,isi_dur_in_seconds,participant,session,date,expName,psychopyVersion,OS,frameRate,PROLIFIC_PID,STUDY_ID,SESSION_ID,key_resp.rt,key_resp_4.rt
return,456.2589,space,26.1491,,,0,0,0,129,1,X,2,3,5, ,,1500,1.5,,001,2021-08-19_16h38.34.376,natb3,2021.2.3,Win32,59.93048064,610486fd0624f488262e7dc8,611e07ecdcc96256ae8d5b80,611e7ab3723c8afdf6ffd1fd,,
,,,,,,0,1,1,89,1,X,3, , , ,,2000,2,,001,2021-08-19_16h38.34.376,natb3,2021.2.3,Win32,59.93048064,610486fd0624f488262e7dc8,611e07ecdcc96256ae8d5b80,611e7ab3723c8afdf6ffd1fd,,
,,,,space,,0,2,2,230,1,U, , , , ,space,1500,1.5,,001,2021-08-19_16h38.34.376,natb3,2021.2.3,Win32,59.93048064,610486fd0624f488262e7dc8,611e07ecdcc96256ae8d5b80,611e7ab3723c8afdf6ffd1fd,0.4594,
,,,,space,,0,3,3,173,1,V, , , , ,space,1500,1.5,,001,2021-08-19_16h38.34.376,natb3,2021.2.3,Win32,59.93048064,610486fd0624f488262e7dc8,611e07ecdcc96256ae8d5b80,611e7ab3723c8afdf6ffd1fd,0.4575,
,,,,space,,0,4,4,179,1,X, ,9, ,2,,1500,1.5,,001,2021-08-19_16h38.34.376,natb3,2021.2.3,Win32,59.93048064,610486fd0624f488262e7dc8,611e07ecdcc96256ae8d5b80,611e7ab3723c8afdf6ffd1fd,0.3527,
,,,,space,,0,5,5,147,1,E, , , , ,space,2000,2,,001,2021-08-19_16h38.34.376,natb3,2021.2.3,Win32,59.93048064,610486fd0624f488262e7dc8,611e07ecdcc96256ae8d5b80,611e7ab3723c8afdf6ffd1fd,0.4035,
,,,,space,,0,6,6,79,1,P, , , , ,space,2000,2,,001,2021-08-19_16h38.34.376,natb3,2021.2.3,Win32,59.93048064,610486fd0624f488262e7dc8,611e07ecdcc96256ae8d5b80,611e7ab3723c8afdf6ffd1fd,0.4734,
,,,,space,,0,7,7,97,1,B, , , , ,space,2500,2.5,,001,2021-08-19_16h38.34.376,natb3,2021.2.3,Win32,59.93048064,610486fd0624f488262e7dc8,611e07ecdcc96256ae8d5b80,611e7ab3723c8afdf6ffd1fd,0.4606,
,,,,space,,0,8,8,42,1,U, , , , ,space,1500,1.5,,001,2021-08-19_16h38.34.376,natb3,2021.2.3,Win32,59.93048064,610486fd0624f488262e7dc8,611e07ecdcc96256ae8d5b80,611e7ab3723c8afdf6ffd1fd,0.5522,
,,,,space,,0,9,9,218,1,X,1,3, ,8,,1500,1.5,,001,2021-08-19_16h38.34.376,natb3,2021.2.3,Win32,59.93048064,610486fd0624f488262e7dc8,611e07ecdcc96256ae8d5b80,611e7ab3723c8afdf6ffd1fd,0.3351,
,,,,space,,0,10,10,137,1,C, , , , ,space,2500,2.5,,001,2021-08-19_16h38.34.376,natb3,2021.2.3,Win32,59.93048064,610486fd0624f488262e7dc8,611e07ecdcc96256ae8d5b80,611e7ab3723c8afdf6ffd1fd,0.4107,
,,,,space,,0,11,11,275,1,G, , , , ,space,1500,1.5,,001,2021-08-19_16h38.34.376,natb3,2021.2.3,Win32,59.93048064,610486fd0624f488262e7dc8,611e07ecdcc96256ae8d5b80,611e7ab3723c8afdf6ffd1fd,0.4121,
,,,,space,,0,12,12,306,1,D, , , , ,space,2000,2,,001,2021-08-19_16h38.34.376,natb3,2021.2.3,Win32,59.93048064,610486fd0624f488262e7dc8,611e07ecdcc96256ae8d5b80,611e7ab3723c8afdf6ffd1fd,0.3409,
,,,,space,,0,13,13,225,1,E, , , , ,space,2000,2,,001,2021-08-19_16h38.34.376,natb3,2021.2.3,Win32,59.93048064,610486fd0624f488262e7dc8,611e07ecdcc96256ae8d5b80,611e7ab3723c8afdf6ffd1fd,0.3707,
,,,,space,,0,14,14,6,1,Y, , , , ,space,2500,2.5,,001,2021-08-19_16h38.34.376,natb3,2021.2.3,Win32,59.93048064,610486fd0624f488262e7dc8,611e07ecdcc96256ae8d5b80,611e7ab3723c8afdf6ffd1fd,0.3197,
,,,,space,,0,15,15,70,1,E, , , , ,space,2500,2.5,,001,2021-08-19_16h38.34.376,natb3,2021.2.3,Win32,59.93048064,610486fd0624f488262e7dc8,611e07ecdcc96256ae8d5b80,611e7ab3723c8afdf6ffd1fd,0.4037,
,,,,space,,0,16,16,253,1,N, , , , ,space,2500,2.5,,001,2021-08-19_16h38.34.376,natb3,2021.2.3,Win32,59.93048064,610486fd0624f488262e7dc8,611e07ecdcc96256ae8d5b80,611e7ab3723c8afdf6ffd1fd,0.349,
,,,,space,,0,17,17,117,1,T, , , , ,space,2500,2.5,,001,2021-08-19_16h38.34.376,natb3,2021.2.3,Win32,59.93048064,610486fd0624f488262e7dc8,611e07ecdcc96256ae8d5b80,611e7ab3723c8afdf6ffd1fd,0.4328,
,,,,space,,0,18,18,16,1,D, , , , ,space,1500,1.5,,001,2021-08-19_16h38.34.376,natb3,2021.2.3,Win32,59.93048064,610486fd0624f488262e7dc8,611e07ecdcc96256ae8d5b80,611e7ab3723c8afdf6ffd1fd,0.3803,
,,,,space,,0,19,19,280,1,L, , , , ,space,1500,1.5,,001,2021-08-19_16h38.34.376,natb3,2021.2.3,Win32,59.93048064,610486fd0624f488262e7dc8,611e07ecdcc96256ae8d5b80,611e7ab3723c8afdf6ffd1fd,0.3469,
,,,,space,,0,20,20,28,1,V, , , , ,space,1500,1.5,,001,2021-08-19_16h38.34.376,natb3,2021.2.3,Win32,59.93048064,610486fd0624f488262e7dc8,611e07ecdcc96256ae8d5b80,611e7ab3723c8afdf6ffd1fd,0.2888,
,,,,space,,0,21,21,119,1,Y, , , , ,space,2500,2.5,,001,2021-08-19_16h38.34.376,natb3,2021.2.3,Win32,59.93048064,610486fd0624f488262e7dc8,611e07ecdcc96256ae8d5b80,611e7ab3723c8afdf6ffd1fd,0.4307,
,,,,space,,0,22,22,312,1,K, , , , ,space,2000,2,,001,2021-08-19_16h38.34.376,natb3,2021.2.3,Win32,59.93048064,610486fd0624f488262e7dc8,611e07ecdcc96256ae8d5b80,611e7ab3723c8afdf6ffd1fd,0.3898,
,,,,space,,0,23,23,75,1,U, , , , ,space,1500,1.5,,001,2021-08-19_16h38.34.376,natb3,2021.2.3,Win32,59.93048064,610486fd0624f488262e7dc8,611e07ecdcc96256ae8d5b80,611e7ab3723c8afdf6ffd1fd,0.3366,
,,,,space,,0,24,24,125,1,X, , , , ,,2000,2,,001,2021-08-19_16h38.34.376,natb3,2021.2.3,Win32,59.93048064,610486fd0624f488262e7dc8,611e07ecdcc96256ae8d5b80,611e7ab3723c8afdf6ffd1fd,0.3032,
,,,,space,,0,25,25,138,1,X,8,5, ,3,,2000,2,,001,2021-08-19_16h38.34.376,natb3,2021.2.3,Win32,59.93048064,610486fd0624f488262e7dc8,611e07ecdcc96256ae8d5b80,611e7ab3723c8afdf6ffd1fd,0.4709,
,,,,space,,0,26,26,272,1,D, , , , ,space,2000,2,,001,2021-08-19_16h38.34.376,natb3,2021.2.3,Win32,59.93048064,610486fd0624f488262e7dc8,611e07ecdcc96256ae8d5b80,611e7ab3723c8afdf6ffd1fd,0.4299,
,,,,,,0,27,27,12,1,X, , , , ,,1500,1.5,,001,2021-08-19_16h38.34.376,natb3,2021.2.3,Win32,59.93048064,610486fd0624f488262e7dc8,611e07ecdcc96256ae8d5b80,611e7ab3723c8afdf6ffd1fd,,
,,,,space,,0,28,28,198,1,H, , , , ,space,2500,2.5,,001,2021-08-19_16h38.34.376,natb3,2021.2.3,Win32,59.93048064,610486fd0624f488262e7dc8,611e07ecdcc96256ae8d5b80,611e7ab3723c8afdf6ffd1fd,0.4348,
,,,,space,,0,29,29,217,1,T, , , , ,space,2500,2.5,,001,2021-08-19_16h38.34.376,natb3,2021.2.3,Win32,59.93048064,610486fd0624f488262e7dc8,611e07ecdcc96256ae8d5b80,611e7ab3723c8afdf6ffd1fd,0.4257,
,,,,space,,0,30,30,260,1,R, , , , ,space,2000,2,,001,2021-08-19_16h38.34.376,natb3,2021.2.3,Win32,59.93048064,610486fd0624f488262e7dc8,611e07ecdcc96256ae8d5b80,611e7ab3723c8afdf6ffd1fd,0.4192,
,,,,,,0,31,31,236,1,X,3, ,4,7,,2500,2.5,,001,2021-08-19_16h38.34.376,natb3,2021.2.3,Win32,59.93048064,610486fd0624f488262e7dc8,611e07ecdcc96256ae8d5b80,611e7ab3723c8afdf6ffd1fd,,
,,,,space,,0,32,32,159,1,S, , , , ,space,2500,2.5,,001,2021-08-19_16h38.34.376,natb3,2021.2.3,Win32,59.93048064,610486fd0624f488262e7dc8,611e07ecdcc96256ae8d5b80,611e7ab3723c8afdf6ffd1fd,0.4393,
,,,,space,,0,33,33,46,1,X, , , , ,,2000,2,,001,2021-08-19_16h38.34.376,natb3,2021.2.3,Win32,59.93048064,610486fd0624f488262e7dc8,611e07ecdcc96256ae8d5b80,611e7ab3723c8afdf6ffd1fd,0.3633,
,,,,space,,0,34,34,61,1,C, , , , ,space,2000,2,,001,2021-08-19_16h38.34.376,natb3,2021.2.3,Win32,59.93048064,610486fd0624f488262e7dc8,611e07ecdcc96256ae8d5b80,611e7ab3723c8afdf6ffd1fd,0.4422,
,,,,,,0,35,35,107,1,X,9,3, ,2,,2000,2,,001,2021-08-19_16h38.34.376,natb3,2021.2.3,Win32,59.93048064,610486fd0624f488262e7dc8,611e07ecdcc96256ae8d5b80,611e7ab3723c8afdf6ffd1fd,,
,,,,,,0,36,36,31,1,X, , , , ,,1500,1.5,,001,2021-08-19_16h38.34.376,natb3,2021.2.3,Win32,59.93048064,610486fd0624f488262e7dc8,611e07ecdcc96256ae8d5b80,611e7ab3723c8afdf6ffd1fd,,
,,,,space,,0,37,37,279,1,K, , , , ,space,2500,2.5,,001,2021-08-19_16h38.34.376,natb3,2021.2.3,Win32,59.93048064,610486fd0624f488262e7dc8,611e07ecdcc96256ae8d5b80,611e7ab3723c8afdf6ffd1fd,0.3474,
,,,,space,,0,38,38,251,1,B, , , , ,space,1500,1.5,,001,2021-08-19_16h38.34.376,natb3,2021.2.3,Win32,59.93048064,610486fd0624f488262e7dc8,611e07ecdcc96256ae8d5b80,611e7ab3723c8afdf6ffd1fd,0.4147,
,,,,space,,0,39,39,296,1,Y, , , , ,space,2500,2.5,,001,2021-08-19_16h38.34.376,natb3,2021.2.3,Win32,59.93048064,610486fd0624f488262e7dc8,611e07ecdcc96256ae8d5b80,611e7ab3723c8afdf6ffd1fd,0.4248,
,,,,space,,0,40,40,333,1,I, , , , ,space,1500,1.5,,001,2021-08-19_16h38.34.376,natb3,2021.2.3,Win32,59.93048064,610486fd0624f488262e7dc8,611e07ecdcc96256ae8d5b80,611e7ab3723c8afdf6ffd1fd,0.5275,
,,,,space,,0,41,41,186,1,U, , , , ,space,2500,2.5,,001,2021-08-19_16h38.34.376,natb3,2021.2.3,Win32,59.93048064,610486fd0624f488262e7dc8,611e07ecdcc96256ae8d5b80,611e7ab3723c8afdf6ffd1fd,0.4215,
,,,,space,,0,42,42,142,1,N, , , , ,space,2500,2.5,,001,2021-08-19_16h38.34.376,natb3,2021.2.3,Win32,59.93048064,610486fd0624f488262e7dc8,611e07ecdcc96256ae8d5b80,611e7ab3723c8afdf6ffd1fd,0.3801,
,,,,space,,0,43,43,160,1,D, , , , ,space,1500,1.5,,001,2021-08-19_16h38.34.376,natb3,2021.2.3,Win32,59.93048064,610486fd0624f488262e7dc8,611e07ecdcc96256ae8d5b80,611e7ab3723c8afdf6ffd1fd,0.3268,
,,,,space,,0,44,44,51,1,X,7,5,8, ,,1500,1.5,,001,2021-08-19_16h38.34.376,natb3,2021.2.3,Win32,59.93048064,610486fd0624f488262e7dc8,611e07ecdcc96256ae8d5b80,611e7ab3723c8afdf6ffd1fd,0.361,
,,,,space,,0,45,45,38,1,R, , , , ,space,2500,2.5,,001,2021-08-19_16h38.34.376,natb3,2021.2.3,Win32,59.93048064,610486fd0624f488262e7dc8,611e07ecdcc96256ae8d5b80,611e7ab3723c8afdf6ffd1fd,0.3983,
,,,,space,,0,46,46,183,1,R, , , , ,space,1500,1.5,,001,2021-08-19_16h38.34.376,natb3,2021.2.3,Win32,59.93048064,610486fd0624f488262e7dc8,611e07ecdcc96256ae8d5b80,611e7ab3723c8afdf6ffd1fd,0.3926,
,,,,space,,0,47,47,250,1,V, , , , ,space,2000,2,,001,2021-08-19_16h38.34.376,natb3,2021.2.3,Win32,59.93048064,610486fd0624f488262e7dc8,611e07ecdcc96256ae8d5b80,611e7ab3723c8afdf6ffd1fd,0.4388,
,,,,space,,0,48,48,219,1,Y, , , , ,space,2000,2,,001,2021-08-19_16h38.34.376,natb3,2021.2.3,Win32,59.93048064,610486fd0624f488262e7dc8,611e07ecdcc96256ae8d5b80,611e7ab3723c8afdf6ffd1fd,0.3787,
,,,,space,,0,49,49,14,1,S, , , , ,space,2500,2.5,,001,2021-08-19_16h38.34.376,natb3,2021.2.3,Win32,59.93048064,610486fd0624f488262e7dc8,611e07ecdcc96256ae8d5b80,611e7ab3723c8afdf6ffd1fd,0.4108,
,,,,,,0,50,50,118,1,X, , , , ,,2000,2,,001,2021-08-19_16h38.34.376,natb3,2021.2.3,Win32,59.93048064,610486fd0624f488262e7dc8,611e07ecdcc96256ae8d5b80,611e7ab3723c8afdf6ffd1fd,,
,,,,space,,0,51,51,245,1,K, , , , ,space,2000,2,,001,2021-08-19_16h38.34.376,natb3,2021.2.3,Win32,59.93048064,610486fd0624f488262e7dc8,611e07ecdcc96256ae8d5b80,611e7ab3723c8afdf6ffd1fd,0.3499,
,,,,space,,0,52,52,244,1,J, , , , ,space,1500,1.5,,001,2021-08-19_16h38.34.376,natb3,2021.2.3,Win32,59.93048064,610486fd0624f488262e7dc8,611e07ecdcc96256ae8d5b80,611e7ab3723c8afdf6ffd1fd,0.5484,
,,,,,,0,53,53,325,1,X, , , , ,,2500,2.5,,001,2021-08-19_16h38.34.376,natb3,2021.2.3,Win32,59.93048064,610486fd0624f488262e7dc8,611e07ecdcc96256ae8d5b80,611e7ab3723c8afdf6ffd1fd,,
,,,,space,,0,54,54,199,1,J, , , , ,space,2500,2.5,,001,2021-08-19_16h38.34.376,natb3,2021.2.3,Win32,59.93048064,610486fd0624f488262e7dc8,611e07ecdcc96256ae8d5b80,611e7ab3723c8afdf6ffd1fd,0.45,
,,,,space,,0,55,55,114,1,E, , , , ,space,2000,2,,001,2021-08-19_16h38.34.376,natb3,2021.2.3,Win32,59.93048064,610486fd0624f488262e7dc8,611e07ecdcc96256ae8d5b80,611e7ab3723c8afdf6ffd1fd,0.4037,
,,,,space,,0,56,56,99,1,N, , , , ,space,2500,2.5,,001,2021-08-19_16h38.34.376,natb3,2021.2.3,Win32,59.93048064,610486fd0624f488262e7dc8,611e07ecdcc96256ae8d5b80,611e7ab3723c8afdf6ffd1fd,0.402,
,,,,space,,0,57,57,71,1,R, , , , ,space,2500,2.5,,001,2021-08-19_16h38.34.376,natb3,2021.2.3,Win32,59.93048064,610486fd0624f488262e7dc8,611e07ecdcc96256ae8d5b80,611e7ab3723c8afdf6ffd1fd,0.3767,
,,,,space,,0,58,58,314,1,L, , , , ,space,1500,1.5,,001,2021-08-19_16h38.34.376,natb3,2021.2.3,Win32,59.93048064,610486fd0624f488262e7dc8,611e07ecdcc96256ae8d5b80,611e7ab3723c8afdf6ffd1fd,0.4301,
,,,,space,,0,59,59,184,1,T, , , , ,space,2000,2,,001,2021-08-19_16h38.34.376,natb3,2021.2.3,Win32,59.93048064,610486fd0624f488262e7dc8,611e07ecdcc96256ae8d5b80,611e7ab3723c8afdf6ffd1fd,0.3469,
,,,,space,,0,60,60,64,1,N, , , , ,space,2000,2,,001,2021-08-19_16h38.34.376,natb3,2021.2.3,Win32,59.93048064,610486fd0624f488262e7dc8,611e07ecdcc96256ae8d5b80,611e7ab3723c8afdf6ffd1fd,0.3948,
,,,,space,,0,61,61,65,1,M, , , , ,space,1500,1.5,,001,2021-08-19_16h38.34.376,natb3,2021.2.3,Win32,59.93048064,610486fd0624f488262e7dc8,611e07ecdcc96256ae8d5b80,611e7ab3723c8afdf6ffd1fd,0.4129,
,,,,space,,0,62,62,249,1,C, , , , ,space,2000,2,,001,2021-08-19_16h38.34.376,natb3,2021.2.3,Win32,59.93048064,610486fd0624f488262e7dc8,611e07ecdcc96256ae8d5b80,611e7ab3723c8afdf6ffd1fd,0.4199,
,,,,space,,0,63,63,283,1,C, , , , ,space,1500,1.5,,001,2021-08-19_16h38.34.376,natb3,2021.2.3,Win32,59.93048064,610486fd0624f488262e7dc8,611e07ecdcc96256ae8d5b80,611e7ab3723c8afdf6ffd1fd,0.3844,
,,,,space,,0,64,64,126,1,A, , , , ,space,2500,2.5,,001,2021-08-19_16h38.34.376,natb3,2021.2.3,Win32,59.93048064,610486fd0624f488262e7dc8,611e07ecdcc96256ae8d5b80,611e7ab3723c8afdf6ffd1fd,0.3492,
,,,,space,,0,65,65,320,1,B, , , , ,space,1500,1.5,,001,2021-08-19_16h38.34.376,natb3,2021.2.3,Win32,59.93048064,610486fd0624f488262e7dc8,611e07ecdcc96256ae8d5b80,611e7ab3723c8afdf6ffd1fd,0.4777,
,,,,space,,0,66,66,263,1,X,4, ,6, ,,1500,1.5,,001,2021-08-19_16h38.34.376,natb3,2021.2.3,Win32,59.93048064,610486fd0624f488262e7dc8,611e07ecdcc96256ae8d5b80,611e7ab3723c8afdf6ffd1fd,0.3532,
,,,,,,0,67,67,271,1,X, , , , ,,2500,2.5,,001,2021-08-19_16h38.34.376,natb3,2021.2.3,Win32,59.93048064,610486fd0624f488262e7dc8,611e07ecdcc96256ae8d5b80,611e7ab3723c8afdf6ffd1fd,,
,,,,space,,0,68,68,177,1,M, , , , ,space,2500,2.5,,001,2021-08-19_16h38.34.376,natb3,2021.2.3,Win32,59.93048064,610486fd0624f488262e7dc8,611e07ecdcc96256ae8d5b80,611e7ab3723c8afdf6ffd1fd,0.5169,
,,,,space,,0,69,69,155,1,O, , , , ,space,1500,1.5,,001,2021-08-19_16h38.34.376,natb3,2021.2.3,Win32,59.93048064,610486fd0624f488262e7dc8,611e07ecdcc96256ae8d5b80,611e7ab3723c8afdf6ffd1fd,0.4657,
,,,,,,0,70,70,195,1,X, , , , ,,1500,1.5,,001,2021-08-19_16h38.34.376,natb3,2021.2.3,Win32,59.93048064,610486fd0624f488262e7dc8,611e07ecdcc96256ae8d5b80,611e7ab3723c8afdf6ffd1fd,,
,,,,,,0,71,71,133,1,X, ,4, ,6,,2500,2.5,,001,2021-08-19_16h38.34.376,natb3,2021.2.3,Win32,59.93048064,610486fd0624f488262e7dc8,611e07ecdcc96256ae8d5b80,611e7ab3723c8afdf6ffd1fd,,
,,,,space,,0,72,72,264,1,U, , , , ,space,2000,2,,001,2021-08-19_16h38.34.376,natb3,2021.2.3,Win32,59.93048064,610486fd0624f488262e7dc8,611e07ecdcc96256ae8d5b80,611e7ab3723c8afdf6ffd1fd,0.4919,
,,,,space,,0,73,73,19,1,G, , , , ,space,1500,1.5,,001,2021-08-19_16h38.34.376,natb3,2021.2.3,Win32,59.93048064,610486fd0624f488262e7dc8,611e07ecdcc96256ae8d5b80,611e7ab3723c8afdf6ffd1fd,0.5421,
,,,,,,0,74,74,203,1,X, , , , ,,2500,2.5,,001,2021-08-19_16h38.34.376,natb3,2021.2.3,Win32,59.93048064,610486fd0624f488262e7dc8,611e07ecdcc96256ae8d5b80,611e7ab3723c8afdf6ffd1fd,,
,,,,space,,0,75,75,5,1,T, , , , ,space,2000,2,,001,2021-08-19_16h38.34.376,natb3,2021.2.3,Win32,59.93048064,610486fd0624f488262e7dc8,611e07ecdcc96256ae8d5b80,611e7ab3723c8afdf6ffd1fd,0.4623,
,,,,space,,0,76,76,45,1,O, , , , ,space,2000,2,,001,2021-08-19_16h38.34.376,natb3,2021.2.3,Win32,59.93048064,610486fd0624f488262e7dc8,611e07ecdcc96256ae8d5b80,611e7ab3723c8afdf6ffd1fd,0.7327,
,,,,,,0,77,77,153,1,X,4,7, ,6,,2000,2,,001,2021-08-19_16h38.34.376,natb3,2021.2.3,Win32,59.93048064,610486fd0624f488262e7dc8,611e07ecdcc96256ae8d5b80,611e7ab3723c8afdf6ffd1fd,,
,,,,space,,0,78,78,209,1,N, , , , ,space,2000,2,,001,2021-08-19_16h38.34.376,natb3,2021.2.3,Win32,59.93048064,610486fd0624f488262e7dc8,611e07ecdcc96256ae8d5b80,611e7ab3723c8afdf6ffd1fd,0.5164,
,,,,,,0,79,79,84,1,X, , , , ,,2000,2,,001,2021-08-19_16h38.34.376,natb3,2021.2.3,Win32,59.93048064,610486fd0624f488262e7dc8,611e07ecdcc96256ae8d5b80,611e7ab3723c8afdf6ffd1fd,,
,,,,space,,0,80,80,174,1,B, , , , ,space,2500,2.5,,001,2021-08-19_16h38.34.376,natb3,2021.2.3,Win32,59.93048064,610486fd0624f488262e7dc8,611e07ecdcc96256ae8d5b80,611e7ab3723c8afdf6ffd1fd,0.8888,
,,,,space,,0,81,81,4,1,X, , , , ,,2000,2,,001,2021-08-19_16h38.34.376,natb3,2021.2.3,Win32,59.93048064,610486fd0624f488262e7dc8,611e07ecdcc96256ae8d5b80,611e7ab3723c8afdf6ffd1fd,0.3046,
,,,,,,0,82,82,268,1,X,6, ,3, ,,2500,2.5,,001,2021-08-19_16h38.34.376,natb3,2021.2.3,Win32,59.93048064,610486fd0624f488262e7dc8,611e07ecdcc96256ae8d5b80,611e7ab3723c8afdf6ffd1fd,,
,,,,,,0,83,83,166,1,X, , , , ,,2000,2,,001,2021-08-19_16h38.34.376,natb3,2021.2.3,Win32,59.93048064,610486fd0624f488262e7dc8,611e07ecdcc96256ae8d5b80,611e7ab3723c8afdf6ffd1fd,,
,,,,space,,0,84,84,202,1,L, , , , ,space,2500,2.5,,001,2021-08-19_16h38.34.376,natb3,2021.2.3,Win32,59.93048064,610486fd0624f488262e7dc8,611e07ecdcc96256ae8d5b80,611e7ab3723c8afdf6ffd1fd,0.4411,
,,,,space,,0,85,85,226,1,R, , , , ,space,2000,2,,001,2021-08-19_16h38.34.376,natb3,2021.2.3,Win32,59.93048064,610486fd0624f488262e7dc8,611e07ecdcc96256ae8d5b80,611e7ab3723c8afdf6ffd1fd,0.4205,
,,,,,,0,86,86,187,1,X, ,3,7,4,,1500,1.5,,001,2021-08-19_16h38.34.376,natb3,2021.2.3,Win32,59.93048064,610486fd0624f488262e7dc8,611e07ecdcc96256ae8d5b80,611e7ab3723c8afdf6ffd1fd,,
,,,,space,,0,87,87,130,1,F, , , , ,space,2000,2,,001,2021-08-19_16h38.34.376,natb3,2021.2.3,Win32,59.93048064,610486fd0624f488262e7dc8,611e07ecdcc96256ae8d5b80,611e7ab3723c8afdf6ffd1fd,0.4394,
,,,,space,,0,88,88,24,1,L, , , , ,space,2500,2.5,,001,2021-08-19_16h38.34.376,natb3,2021.2.3,Win32,59.93048064,610486fd0624f488262e7dc8,611e07ecdcc96256ae8d5b80,611e7ab3723c8afdf6ffd1fd,0.5522,
,,,,space,,0,89,89,276,1,H, , , , ,space,2000,2,,001,2021-08-19_16h38.34.376,natb3,2021.2.3,Win32,59.93048064,610486fd0624f488262e7dc8,611e07ecdcc96256ae8d5b80,611e7ab3723c8afdf6ffd1fd,0.6092,
,,,,space,,0,90,90,284,1,V, , , , ,space,2500,2.5,,001,2021-08-19_16h38.34.376,natb3,2021.2.3,Win32,59.93048064,610486fd0624f488262e7dc8,611e07ecdcc96256ae8d5b80,611e7ab3723c8afdf6ffd1fd,0.4881,
,,,,space,,0,91,91,301,1,P, , , , ,space,1500,1.5,,001,2021-08-19_16h38.34.376,natb3,2021.2.3,Win32,59.93048064,610486fd0624f488262e7dc8,611e07ecdcc96256ae8d5b80,611e7ab3723c8afdf6ffd1fd,0.6328,
,,,,,,0,92,92,273,1,X, , , , ,,2000,2,,001,2021-08-19_16h38.34.376,natb3,2021.2.3,Win32,59.93048064,610486fd0624f488262e7dc8,611e07ecdcc96256ae8d5b80,611e7ab3723c8afdf6ffd1fd,,
,,,,space,,0,93,93,235,1,A, , , , ,space,1500,1.5,,001,2021-08-19_16h38.34.376,natb3,2021.2.3,Win32,59.93048064,610486fd0624f488262e7dc8,611e07ecdcc96256ae8d5b80,611e7ab3723c8afdf6ffd1fd,0.4789,
,,,,space,,0,94,94,127,1,S, , , , ,space,2500,2.5,,001,2021-08-19_16h38.34.376,natb3,2021.2.3,Win32,59.93048064,610486fd0624f488262e7dc8,611e07ecdcc96256ae8d5b80,611e7ab3723c8afdf6ffd1fd,0.3942,
,,,,,,0,95,95,329,1,X,3,4, ,2,,2500,2.5,,001,2021-08-19_16h38.34.376,natb3,2021.2.3,Win32,59.93048064,610486fd0624f488262e7dc8,611e07ecdcc96256ae8d5b80,611e7ab3723c8afdf6ffd1fd,,
,,,,,,0,96,96,213,1,X, , , , ,,2500,2.5,,001,2021-08-19_16h38.34.376,natb3,2021.2.3,Win32,59.93048064,610486fd0624f488262e7dc8,611e07ecdcc96256ae8d5b80,611e7ab3723c8afdf6ffd1fd,,
,,,,space,,0,97,97,326,1,W, , , , ,space,2000,2,,001,2021-08-19_16h38.34.376,natb3,2021.2.3,Win32,59.93048064,610486fd0624f488262e7dc8,611e07ecdcc96256ae8d5b80,611e7ab3723c8afdf6ffd1fd,0.4727,
,,,,space,,0,98,98,205,1,C, , , , ,space,2000,2,,001,2021-08-19_16h38.34.376,natb3,2021.2.3,Win32,59.93048064,610486fd0624f488262e7dc8,611e07ecdcc96256ae8d5b80,611e7ab3723c8afdf6ffd1fd,0.4018,
,,,,space,,0,99,99,231,1,I, , , , ,space,2500,2.5,,001,2021-08-19_16h38.34.376,natb3,2021.2.3,Win32,59.93048064,610486fd0624f488262e7dc8,611e07ecdcc96256ae8d5b80,611e7ab3723c8afdf6ffd1fd,0.3972,
,,,,space,,0,100,100,55,1,H, , , , ,space,2500,2.5,,001,2021-08-19_16h38.34.376,natb3,2021.2.3,Win32,59.93048064,610486fd0624f488262e7dc8,611e07ecdcc96256ae8d5b80,611e7ab3723c8afdf6ffd1fd,0.4878,
,,,,space,,0,101,101,25,1,Z, , , , ,space,2500,2.5,,001,2021-08-19_16h38.34.376,natb3,2021.2.3,Win32,59.93048064,610486fd0624f488262e7dc8,611e07ecdcc96256ae8d5b80,611e7ab3723c8afdf6ffd1fd,0.6049,
,,,,space,,0,102,102,215,1,E, , , , ,space,2500,2.5,,001,2021-08-19_16h38.34.376,natb3,2021.2.3,Win32,59.93048064,610486fd0624f488262e7dc8,611e07ecdcc96256ae8d5b80,611e7ab3723c8afdf6ffd1fd,0.3879,
,,,,,,0,103,103,72,1,T, , , , ,space,1500,1.5,,001,2021-08-19_16h38.34.376,natb3,2021.2.3,Win32,59.93048064,610486fd0624f488262e7dc8,611e07ecdcc96256ae8d5b80,611e7ab3723c8afdf6ffd1fd,,
,,,,space,,0,104,104,87,1,H, , , , ,space,1500,1.5,,001,2021-08-19_16h38.34.376,natb3,2021.2.3,Win32,59.93048064,610486fd0624f488262e7dc8,611e07ecdcc96256ae8d5b80,611e7ab3723c8afdf6ffd1fd,0.3733,
,,,,,,0,105,105,158,1,X, , , , ,,1500,1.5,,001,2021-08-19_16h38.34.376,natb3,2021.2.3,Win32,59.93048064,610486fd0624f488262e7dc8,611e07ecdcc96256ae8d5b80,611e7ab3723c8afdf6ffd1fd,,
,,,,,,0,106,106,315,1,X, , , , ,,2500,2.5,,001,2021-08-19_16h38.34.376,natb3,2021.2.3,Win32,59.93048064,610486fd0624f488262e7dc8,611e07ecdcc96256ae8d5b80,611e7ab3723c8afdf6ffd1fd,,
,,,,,,0,107,107,175,1,X,7, ,4,2,,1500,1.5,,001,2021-08-19_16h38.34.376,natb3,2021.2.3,Win32,59.93048064,610486fd0624f488262e7dc8,611e07ecdcc96256ae8d5b80,611e7ab3723c8afdf6ffd1fd,,
,,,,space,,0,108,108,193,1,S, , , , ,space,2500,2.5,,001,2021-08-19_16h38.34.376,natb3,2021.2.3,Win32,59.93048064,610486fd0624f488262e7dc8,611e07ecdcc96256ae8d5b80,611e7ab3723c8afdf6ffd1fd,0.4682,
,,,,space,,0,109,109,11,1,P, , , , ,space,2500,2.5,,001,2021-08-19_16h38.34.376,natb3,2021.2.3,Win32,59.93048064,610486fd0624f488262e7dc8,611e07ecdcc96256ae8d5b80,611e7ab3723c8afdf6ffd1fd,0.4105,
,,,,space,,0,110,110,254,1,M, , , , ,space,1500,1.5,,001,2021-08-19_16h38.34.376,natb3,2021.2.3,Win32,59.93048064,610486fd0624f488262e7dc8,611e07ecdcc96256ae8d5b80,611e7ab3723c8afdf6ffd1fd,0.3814,
,,,,space,,0,111,111,36,1,W, , , , ,space,2000,2,,001,2021-08-19_16h38.34.376,natb3,2021.2.3,Win32,59.93048064,610486fd0624f488262e7dc8,611e07ecdcc96256ae8d5b80,611e7ab3723c8afdf6ffd1fd,0.3761,
,,,,space,,0,112,112,324,1,Q, , , , ,space,2000,2,,001,2021-08-19_16h38.34.376,natb3,2021.2.3,Win32,59.93048064,610486fd0624f488262e7dc8,611e07ecdcc96256ae8d5b80,611e7ab3723c8afdf6ffd1fd,0.3846,
,,,,space,,0,113,113,322,1,X, , ,1,6,,2000,2,,001,2021-08-19_16h38.34.376,natb3,2021.2.3,Win32,59.93048064,610486fd0624f488262e7dc8,611e07ecdcc96256ae8d5b80,611e7ab3723c8afdf6ffd1fd,0.3014,
,,,,space,,0,114,114,104,1,E, , , , ,space,2000,2,,001,2021-08-19_16h38.34.376,natb3,2021.2.3,Win32,59.93048064,610486fd0624f488262e7dc8,611e07ecdcc96256ae8d5b80,611e7ab3723c8afdf6ffd1fd,0.4391,
,,,,space,,0,115,115,34,1,Q, , , , ,space,2500,2.5,,001,2021-08-19_16h38.34.376,natb3,2021.2.3,Win32,59.93048064,610486fd0624f488262e7dc8,611e07ecdcc96256ae8d5b80,611e7ab3723c8afdf6ffd1fd,0.3908,
,,,,space,,0,116,116,74,1,X, ,4,3,2,,1500,1.5,,001,2021-08-19_16h38.34.376,natb3,2021.2.3,Win32,59.93048064,610486fd0624f488262e7dc8,611e07ecdcc96256ae8d5b80,611e7ab3723c8afdf6ffd1fd,0.3721,
,,,,space,,0,117,117,256,1,Q, , , , ,space,2000,2,,001,2021-08-19_16h38.34.376,natb3,2021.2.3,Win32,59.93048064,610486fd0624f488262e7dc8,611e07ecdcc96256ae8d5b80,611e7ab3723c8afdf6ffd1fd,0.332,
,,,,space,,0,118,118,27,1,X,5, ,1,3,,1500,1.5,,001,2021-08-19_16h38.34.376,natb3,2021.2.3,Win32,59.93048064,610486fd0624f488262e7dc8,611e07ecdcc96256ae8d5b80,611e7ab3723c8afdf6ffd1fd,0.3708,
,,,,space,,0,119,119,1,1,W, , , , ,space,2000,2,,001,2021-08-19_16h38.34.376,natb3,2021.2.3,Win32,59.93048064,610486fd0624f488262e7dc8,611e07ecdcc96256ae8d5b80,611e7ab3723c8afdf6ffd1fd,0.4023,
,,,,,,0,120,120,255,1,X, , , , ,,1500,1.5,,001,2021-08-19_16h38.34.376,natb3,2021.2.3,Win32,59.93048064,610486fd0624f488262e7dc8,611e07ecdcc96256ae8d5b80,611e7ab3723c8afdf6ffd1fd,,
,,,,space,,0,121,121,124,1,P, , , , ,space,2000,2,,001,2021-08-19_16h38.34.376,natb3,2021.2.3,Win32,59.93048064,610486fd0624f488262e7dc8,611e07ecdcc96256ae8d5b80,611e7ab3723c8afdf6ffd1fd,0.4298,
,,,,space,,0,122,122,103,1,W, , , , ,space,2000,2,,001,2021-08-19_16h38.34.376,natb3,2021.2.3,Win32,59.93048064,610486fd0624f488262e7dc8,611e07ecdcc96256ae8d5b80,611e7ab3723c8afdf6ffd1fd,0.6529,
,,,,space,,0,123,123,190,1,P, , , , ,space,2000,2,,001,2021-08-19_16h38.34.376,natb3,2021.2.3,Win32,59.93048064,610486fd0624f488262e7dc8,611e07ecdcc96256ae8d5b80,611e7ab3723c8afdf6ffd1fd,0.4467,
,,,,space,,0,124,124,62,1,V, , , , ,space,1500,1.5,,001,2021-08-19_16h38.34.376,natb3,2021.2.3,Win32,59.93048064,610486fd0624f488262e7dc8,611e07ecdcc96256ae8d5b80,611e7ab3723c8afdf6ffd1fd,0.5872,
,,,,space,,0,125,125,49,1,S, , , , ,space,1500,1.5,,001,2021-08-19_16h38.34.376,natb3,2021.2.3,Win32,59.93048064,610486fd0624f488262e7dc8,611e07ecdcc96256ae8d5b80,611e7ab3723c8afdf6ffd1fd,0.4274,
,,,,space,,0,126,126,298,1,I, , , , ,space,2000,2,,001,2021-08-19_16h38.34.376,natb3,2021.2.3,Win32,59.93048064,610486fd0624f488262e7dc8,611e07ecdcc96256ae8d5b80,611e7ab3723c8afdf6ffd1fd,0.4695,
,,,,space,,0,127,127,261,1,T, , , , ,space,2000,2,,001,2021-08-19_16h38.34.376,natb3,2021.2.3,Win32,59.93048064,610486fd0624f488262e7dc8,611e07ecdcc96256ae8d5b80,611e7ab3723c8afdf6ffd1fd,0.4326,
,,,,,,0,128,128,43,1,X, ,6, ,2,,2500,2.5,,001,2021-08-19_16h38.34.376,natb3,2021.2.3,Win32,59.93048064,610486fd0624f488262e7dc8,611e07ecdcc96256ae8d5b80,611e7ab3723c8afdf6ffd1fd,,
,,,,space,,0,129,129,274,1,F, , , , ,space,2000,2,,001,2021-08-19_16h38.34.376,natb3,2021.2.3,Win32,59.93048064,610486fd0624f488262e7dc8,611e07ecdcc96256ae8d5b80,611e7ab3723c8afdf6ffd1fd,0.4526,
,,,,space,,0,130,130,81,1,S, , , , ,space,2000,2,,001,2021-08-19_16h38.34.376,natb3,2021.2.3,Win32,59.93048064,610486fd0624f488262e7dc8,611e07ecdcc96256ae8d5b80,611e7ab3723c8afdf6ffd1fd,0.6295,
,,,,,,0,131,131,299,1,X, , , , ,,2500,2.5,,001,2021-08-19_16h38.34.376,natb3,2021.2.3,Win32,59.93048064,610486fd0624f488262e7dc8,611e07ecdcc96256ae8d5b80,611e7ab3723c8afdf6ffd1fd,,
,,,,space,,0,132,132,163,1,G, , , , ,space,2500,2.5,,001,2021-08-19_16h38.34.376,natb3,2021.2.3,Win32,59.93048064,610486fd0624f488262e7dc8,611e07ecdcc96256ae8d5b80,611e7ab3723c8afdf6ffd1fd,0.4731,
,,,,space,,0,133,133,92,1,Z, , , , ,space,1500,1.5,,001,2021-08-19_16h38.34.376,natb3,2021.2.3,Win32,59.93048064,610486fd0624f488262e7dc8,611e07ecdcc96256ae8d5b80,611e7ab3723c8afdf6ffd1fd,0.8109,
,,,,space,,0,134,134,165,1,J, , , , ,space,2500,2.5,,001,2021-08-19_16h38.34.376,natb3,2021.2.3,Win32,59.93048064,610486fd0624f488262e7dc8,611e07ecdcc96256ae8d5b80,611e7ab3723c8afdf6ffd1fd,0.4365,
,,,,space,,0,135,135,150,1,T, , , , ,space,2500,2.5,,001,2021-08-19_16h38.34.376,natb3,2021.2.3,Win32,59.93048064,610486fd0624f488262e7dc8,611e07ecdcc96256ae8d5b80,611e7ab3723c8afdf6ffd1fd,0.3448,
,,,,,,0,136,136,191,1,X,1, ,3,4,,2500,2.5,,001,2021-08-19_16h38.34.376,natb3,2021.2.3,Win32,59.93048064,610486fd0624f488262e7dc8,611e07ecdcc96256ae8d5b80,611e7ab3723c8afdf6ffd1fd,,
,,,,,,0,137,137,182,1,X, , , , ,,1500,1.5,,001,2021-08-19_16h38.34.376,natb3,2021.2.3,Win32,59.93048064,610486fd0624f488262e7dc8,611e07ecdcc96256ae8d5b80,611e7ab3723c8afdf6ffd1fd,,
,,,,space,,0,138,138,232,1,O, , , , ,space,2500,2.5,,001,2021-08-19_16h38.34.376,natb3,2021.2.3,Win32,59.93048064,610486fd0624f488262e7dc8,611e07ecdcc96256ae8d5b80,611e7ab3723c8afdf6ffd1fd,0.402,
,,,,space,,0,139,139,151,1,Y, , , , ,space,2500,2.5,,001,2021-08-19_16h38.34.376,natb3,2021.2.3,Win32,59.93048064,610486fd0624f488262e7dc8,611e07ecdcc96256ae8d5b80,611e7ab3723c8afdf6ffd1fd,0.5033,
,,,,space,,0,140,140,106,1,T, , , , ,space,1500,1.5,,001,2021-08-19_16h38.34.376,natb3,2021.2.3,Win32,59.93048064,610486fd0624f488262e7dc8,611e07ecdcc96256ae8d5b80,611e7ab3723c8afdf6ffd1fd,0.3628,
,,,,space,,0,141,141,83,1,D, , , , ,space,2000,2,,001,2021-08-19_16h38.34.376,natb3,2021.2.3,Win32,59.93048064,610486fd0624f488262e7dc8,611e07ecdcc96256ae8d5b80,611e7ab3723c8afdf6ffd1fd,0.3856,
,,,,space,,0,142,142,241,1,G, , , , ,space,2500,2.5,,001,2021-08-19_16h38.34.376,natb3,2021.2.3,Win32,59.93048064,610486fd0624f488262e7dc8,611e07ecdcc96256ae8d5b80,611e7ab3723c8afdf6ffd1fd,0.3737,
,,,,,,0,143,143,18,1,X, ,2,5,8,,2500,2.5,,001,2021-08-19_16h38.34.376,natb3,2021.2.3,Win32,59.93048064,610486fd0624f488262e7dc8,611e07ecdcc96256ae8d5b80,611e7ab3723c8afdf6ffd1fd,,
,,,,space,,0,144,144,270,1,S, , , , ,space,1500,1.5,,001,2021-08-19_16h38.34.376,natb3,2021.2.3,Win32,59.93048064,610486fd0624f488262e7dc8,611e07ecdcc96256ae8d5b80,611e7ab3723c8afdf6ffd1fd,0.5968,
,,,,,,0,145,145,145,1,X, , , , ,,2000,2,,001,2021-08-19_16h38.34.376,natb3,2021.2.3,Win32,59.93048064,610486fd0624f488262e7dc8,611e07ecdcc96256ae8d5b80,611e7ab3723c8afdf6ffd1fd,,
,,,,,,0,146,146,39,1,X,6,2, , ,,1500,1.5,,001,2021-08-19_16h38.34.376,natb3,2021.2.3,Win32,59.93048064,610486fd0624f488262e7dc8,611e07ecdcc96256ae8d5b80,611e7ab3723c8afdf6ffd1fd,,
,,,,space,,0,147,147,108,1,Y, , , , ,space,2500,2.5,,001,2021-08-19_16h38.34.376,natb3,2021.2.3,Win32,59.93048064,610486fd0624f488262e7dc8,611e07ecdcc96256ae8d5b80,611e7ab3723c8afdf6ffd1fd,0.4913,
,,,,space,,0,148,148,313,1,X, , , , ,,2500,2.5,,001,2021-08-19_16h38.34.376,natb3,2021.2.3,Win32,59.93048064,610486fd0624f488262e7dc8,611e07ecdcc96256ae8d5b80,611e7ab3723c8afdf6ffd1fd,0.3024,
,,,,space,,0,149,149,221,1,I, , , , ,space,2500,2.5,,001,2021-08-19_16h38.34.376,natb3,2021.2.3,Win32,59.93048064,610486fd0624f488262e7dc8,611e07ecdcc96256ae8d5b80,611e7ab3723c8afdf6ffd1fd,0.4801,
,,,,space,,0,150,150,32,1,M, , , , ,space,1500,1.5,,001,2021-08-19_16h38.34.376,natb3,2021.2.3,Win32,59.93048064,610486fd0624f488262e7dc8,611e07ecdcc96256ae8d5b80,611e7ab3723c8afdf6ffd1fd,0.5976,
,,,,space,,0,151,151,328,1,R, , , , ,space,1500,1.5,,001,2021-08-19_16h38.34.376,natb3,2021.2.3,Win32,59.93048064,610486fd0624f488262e7dc8,611e07ecdcc96256ae8d5b80,611e7ab3723c8afdf6ffd1fd,0.4144,
,,,,space,,0,152,152,26,1,C, , , , ,space,2000,2,,001,2021-08-19_16h38.34.376,natb3,2021.2.3,Win32,59.93048064,610486fd0624f488262e7dc8,611e07ecdcc96256ae8d5b80,611e7ab3723c8afdf6ffd1fd,0.4966,
,,,,space,,0,153,153,240,1,F, , , , ,space,2500,2.5,,001,2021-08-19_16h38.34.376,natb3,2021.2.3,Win32,59.93048064,610486fd0624f488262e7dc8,611e07ecdcc96256ae8d5b80,611e7ab3723c8afdf6ffd1fd,0.3856,
,,,,space,,0,154,154,181,1,E, , , , ,space,1500,1.5,,001,2021-08-19_16h38.34.376,natb3,2021.2.3,Win32,59.93048064,610486fd0624f488262e7dc8,611e07ecdcc96256ae8d5b80,611e7ab3723c8afdf6ffd1fd,0.5414,
,,,,space,,0,155,155,143,1,M, , , , ,space,2500,2.5,,001,2021-08-19_16h38.34.376,natb3,2021.2.3,Win32,59.93048064,610486fd0624f488262e7dc8,611e07ecdcc96256ae8d5b80,611e7ab3723c8afdf6ffd1fd,0.4382,
,,,,space,,0,156,156,167,1,K, , , , ,space,1500,1.5,,001,2021-08-19_16h38.34.376,natb3,2021.2.3,Win32,59.93048064,610486fd0624f488262e7dc8,611e07ecdcc96256ae8d5b80,611e7ab3723c8afdf6ffd1fd,0.4629,
,,,,,,0,157,157,248,1,X, ,1,5, ,,1500,1.5,,001,2021-08-19_16h38.34.376,natb3,2021.2.3,Win32,59.93048064,610486fd0624f488262e7dc8,611e07ecdcc96256ae8d5b80,611e7ab3723c8afdf6ffd1fd,,
,,,,space,,0,158,158,50,1,D, , , , ,space,1500,1.5,,001,2021-08-19_16h38.34.376,natb3,2021.2.3,Win32,59.93048064,610486fd0624f488262e7dc8,611e07ecdcc96256ae8d5b80,611e7ab3723c8afdf6ffd1fd,0.4593,
,,,,space,,0,159,159,134,1,J, , , , ,space,2000,2,,001,2021-08-19_16h38.34.376,natb3,2021.2.3,Win32,59.93048064,610486fd0624f488262e7dc8,611e07ecdcc96256ae8d5b80,611e7ab3723c8afdf6ffd1fd,0.4697,
,,,,space,,0,160,160,286,1,N, , , , ,space,1500,1.5,,001,2021-08-19_16h38.34.376,natb3,2021.2.3,Win32,59.93048064,610486fd0624f488262e7dc8,611e07ecdcc96256ae8d5b80,611e7ab3723c8afdf6ffd1fd,0.4847,
,,,,space,,0,161,161,8,1,U, , , , ,space,1500,1.5,,001,2021-08-19_16h38.34.376,natb3,2021.2.3,Win32,59.93048064,610486fd0624f488262e7dc8,611e07ecdcc96256ae8d5b80,611e7ab3723c8afdf6ffd1fd,0.4167,
,,,,space,,0,162,162,323,1,M, , , , ,space,2500,2.5,,001,2021-08-19_16h38.34.376,natb3,2021.2.3,Win32,59.93048064,610486fd0624f488262e7dc8,611e07ecdcc96256ae8d5b80,611e7ab3723c8afdf6ffd1fd,0.433,
,,,,space,,0,163,163,128,1,D, , , , ,space,2500,2.5,,001,2021-08-19_16h38.34.376,natb3,2021.2.3,Win32,59.93048064,610486fd0624f488262e7dc8,611e07ecdcc96256ae8d5b80,611e7ab3723c8afdf6ffd1fd,0.4433,
,,,,space,,0,164,164,330,1,T, , , , ,space,2500,2.5,,001,2021-08-19_16h38.34.376,natb3,2021.2.3,Win32,59.93048064,610486fd0624f488262e7dc8,611e07ecdcc96256ae8d5b80,611e7ab3723c8afdf6ffd1fd,0.4491,
,,,,space,,0,165,165,52,1,F, , , , ,space,1500,1.5,,001,2021-08-19_16h38.34.376,natb3,2021.2.3,Win32,59.93048064,610486fd0624f488262e7dc8,611e07ecdcc96256ae8d5b80,611e7ab3723c8afdf6ffd1fd,0.4647,
,,,,,,0,166,166,259,1,X,8, , ,3,,2500,2.5,,001,2021-08-19_16h38.34.376,natb3,2021.2.3,Win32,59.93048064,610486fd0624f488262e7dc8,611e07ecdcc96256ae8d5b80,611e7ab3723c8afdf6ffd1fd,,
,,,,space,space,0,167,167,321,1,N, , , , ,space,2000,2,,001,2021-08-19_16h38.34.376,natb3,2021.2.3,Win32,59.93048064,610486fd0624f488262e7dc8,611e07ecdcc96256ae8d5b80,611e7ab3723c8afdf6ffd1fd,0.3884,38.9316
,,,,space,,0,168,168,297,1,U, , , , ,space,2000,2,,001,2021-08-19_16h38.34.376,natb3,2021.2.3,Win32,59.93048064,610486fd0624f488262e7dc8,611e07ecdcc96256ae8d5b80,611e7ab3723c8afdf6ffd1fd,0.6337,
,,,,,,0,169,169,144,1,Q, , , , ,space,2500,2.5,,001,2021-08-19_16h38.34.376,natb3,2021.2.3,Win32,59.93048064,610486fd0624f488262e7dc8,611e07ecdcc96256ae8d5b80,611e7ab3723c8afdf6ffd1fd,,
,,,,space,,0,170,170,278,1,J, , , , ,space,2000,2,,001,2021-08-19_16h38.34.376,natb3,2021.2.3,Win32,59.93048064,610486fd0624f488262e7dc8,611e07ecdcc96256ae8d5b80,611e7ab3723c8afdf6ffd1fd,0.4116,
,,,,,,0,171,171,98,1,X, , , , ,,2500,2.5,,001,2021-08-19_16h38.34.376,natb3,2021.2.3,Win32,59.93048064,610486fd0624f488262e7dc8,611e07ecdcc96256ae8d5b80,611e7ab3723c8afdf6ffd1fd,,
,,,,,,0,172,172,148,1,X, , , , ,,2000,2,,001,2021-08-19_16h38.34.376,natb3,2021.2.3,Win32,59.93048064,610486fd0624f488262e7dc8,611e07ecdcc96256ae8d5b80,611e7ab3723c8afdf6ffd1fd,,
,,,,space,,0,173,173,59,1,Z, , , , ,space,2000,2,,001,2021-08-19_16h38.34.376,natb3,2021.2.3,Win32,59.93048064,610486fd0624f488262e7dc8,611e07ecdcc96256ae8d5b80,611e7ab3723c8afdf6ffd1fd,0.8201,
,,,,,,0,174,174,207,1,X,9, ,2, ,,2500,2.5,,001,2021-08-19_16h38.34.376,natb3,2021.2.3,Win32,59.93048064,610486fd0624f488262e7dc8,611e07ecdcc96256ae8d5b80,611e7ab3723c8afdf6ffd1fd,,
,,,,space,,0,175,175,0,1,Q, , , , ,space,1500,1.5,,001,2021-08-19_16h38.34.376,natb3,2021.2.3,Win32,59.93048064,610486fd0624f488262e7dc8,611e07ecdcc96256ae8d5b80,611e7ab3723c8afdf6ffd1fd,0.4752,
,,,,space,,0,176,176,303,1,A, , , , ,space,2000,2,,001,2021-08-19_16h38.34.376,natb3,2021.2.3,Win32,59.93048064,610486fd0624f488262e7dc8,611e07ecdcc96256ae8d5b80,611e7ab3723c8afdf6ffd1fd,0.4774,
,,,,space,,0,177,177,113,1,W, , , , ,space,2500,2.5,,001,2021-08-19_16h38.34.376,natb3,2021.2.3,Win32,59.93048064,610486fd0624f488262e7dc8,611e07ecdcc96256ae8d5b80,611e7ab3723c8afdf6ffd1fd,0.4002,
,,,,space,,0,178,178,9,1,I, , , , ,space,1500,1.5,,001,2021-08-19_16h38.34.376,natb3,2021.2.3,Win32,59.93048064,610486fd0624f488262e7dc8,611e07ecdcc96256ae8d5b80,611e7ab3723c8afdf6ffd1fd,0.4503,
,,,,space,,0,179,179,77,1,O, , , , ,space,2000,2,,001,2021-08-19_16h38.34.376,natb3,2021.2.3,Win32,59.93048064,610486fd0624f488262e7dc8,611e07ecdcc96256ae8d5b80,611e7ab3723c8afdf6ffd1fd,0.4353,
,,,,,,0,180,180,69,1,X, , , , ,,1500,1.5,,001,2021-08-19_16h38.34.376,natb3,2021.2.3,Win32,59.93048064,610486fd0624f488262e7dc8,611e07ecdcc96256ae8d5b80,611e7ab3723c8afdf6ffd1fd,,
,,,,space,,0,181,181,53,1,G, , , , ,space,2500,2.5,,001,2021-08-19_16h38.34.376,natb3,2021.2.3,Win32,59.93048064,610486fd0624f488262e7dc8,611e07ecdcc96256ae8d5b80,611e7ab3723c8afdf6ffd1fd,0.3588,
,,,,,,0,182,182,239,1,X, , , , ,,2000,2,,001,2021-08-19_16h38.34.376,natb3,2021.2.3,Win32,59.93048064,610486fd0624f488262e7dc8,611e07ecdcc96256ae8d5b80,611e7ab3723c8afdf6ffd1fd,,
,,,,space,,0,183,183,2,1,E, , , , ,space,2500,2.5,,001,2021-08-19_16h38.34.376,natb3,2021.2.3,Win32,59.93048064,610486fd0624f488262e7dc8,611e07ecdcc96256ae8d5b80,611e7ab3723c8afdf6ffd1fd,0.3464,
,,,,space,,0,184,184,121,1,I, , , , ,space,2000,2,,001,2021-08-19_16h38.34.376,natb3,2021.2.3,Win32,59.93048064,610486fd0624f488262e7dc8,611e07ecdcc96256ae8d5b80,611e7ab3723c8afdf6ffd1fd,0.4946,
,,,,space,,0,185,185,289,1,Q, , , , ,space,2000,2,,001,2021-08-19_16h38.34.376,natb3,2021.2.3,Win32,59.93048064,610486fd0624f488262e7dc8,611e07ecdcc96256ae8d5b80,611e7ab3723c8afdf6ffd1fd,0.3996,
,,,,space,,0,186,186,222,1,O, , , , ,space,2000,2,,001,2021-08-19_16h38.34.376,natb3,2021.2.3,Win32,59.93048064,610486fd0624f488262e7dc8,611e07ecdcc96256ae8d5b80,611e7ab3723c8afdf6ffd1fd,0.3825,
,,,,space,,0,187,187,13,1,A, , , , ,space,2000,2,,001,2021-08-19_16h38.34.376,natb3,2021.2.3,Win32,59.93048064,610486fd0624f488262e7dc8,611e07ecdcc96256ae8d5b80,611e7ab3723c8afdf6ffd1fd,0.419,
,,,,space,,0,188,188,201,1,K, , , , ,space,1500,1.5,,001,2021-08-19_16h38.34.376,natb3,2021.2.3,Win32,59.93048064,610486fd0624f488262e7dc8,611e07ecdcc96256ae8d5b80,611e7ab3723c8afdf6ffd1fd,0.4336,
,,,,space,,0,189,189,292,1,E, , , , ,space,2000,2,,001,2021-08-19_16h38.34.376,natb3,2021.2.3,Win32,59.93048064,610486fd0624f488262e7dc8,611e07ecdcc96256ae8d5b80,611e7ab3723c8afdf6ffd1fd,0.3821,
,,,,,,0,190,190,211,1,X, , , , ,,2500,2.5,,001,2021-08-19_16h38.34.376,natb3,2021.2.3,Win32,59.93048064,610486fd0624f488262e7dc8,611e07ecdcc96256ae8d5b80,611e7ab3723c8afdf6ffd1fd,,
,,,,space,,0,191,191,29,1,B, , , , ,space,1500,1.5,,001,2021-08-19_16h38.34.376,natb3,2021.2.3,Win32,59.93048064,610486fd0624f488262e7dc8,611e07ecdcc96256ae8d5b80,611e7ab3723c8afdf6ffd1fd,0.485,
,,,,space,,0,192,192,238,1,D, , , , ,space,1500,1.5,,001,2021-08-19_16h38.34.376,natb3,2021.2.3,Win32,59.93048064,610486fd0624f488262e7dc8,611e07ecdcc96256ae8d5b80,611e7ab3723c8afdf6ffd1fd,0.3278,
,,,,space,,0,193,193,105,1,R, , , , ,space,2500,2.5,,001,2021-08-19_16h38.34.376,natb3,2021.2.3,Win32,59.93048064,610486fd0624f488262e7dc8,611e07ecdcc96256ae8d5b80,611e7ab3723c8afdf6ffd1fd,0.3347,
,,,,space,,0,194,194,204,1,Z, , , , ,space,2000,2,,001,2021-08-19_16h38.34.376,natb3,2021.2.3,Win32,59.93048064,610486fd0624f488262e7dc8,611e07ecdcc96256ae8d5b80,611e7ab3723c8afdf6ffd1fd,0.3684,
,,,,space,,0,195,195,185,1,Y, , , , ,space,2500,2.5,,001,2021-08-19_16h38.34.376,natb3,2021.2.3,Win32,59.93048064,610486fd0624f488262e7dc8,611e07ecdcc96256ae8d5b80,611e7ab3723c8afdf6ffd1fd,0.4035,
,,,,space,,0,196,196,265,1,I, , , , ,space,2000,2,,001,2021-08-19_16h38.34.376,natb3,2021.2.3,Win32,59.93048064,610486fd0624f488262e7dc8,611e07ecdcc96256ae8d5b80,611e7ab3723c8afdf6ffd1fd,0.3895,
,,,,space,,0,197,197,95,1,V, , , , ,space,1500,1.5,,001,2021-08-19_16h38.34.376,natb3,2021.2.3,Win32,59.93048064,610486fd0624f488262e7dc8,611e07ecdcc96256ae8d5b80,611e7ab3723c8afdf6ffd1fd,0.3886,
,,,,space,,0,198,198,86,1,G, , , , ,space,2000,2,,001,2021-08-19_16h38.34.376,natb3,2021.2.3,Win32,59.93048064,610486fd0624f488262e7dc8,611e07ecdcc96256ae8d5b80,611e7ab3723c8afdf6ffd1fd,0.4137,
,,,,,,0,199,199,66,1,X, ,4,7, ,,2000,2,,001,2021-08-19_16h38.34.376,natb3,2021.2.3,Win32,59.93048064,610486fd0624f488262e7dc8,611e07ecdcc96256ae8d5b80,611e7ab3723c8afdf6ffd1fd,,
,,,,,,0,200,200,287,1,X, ,2, ,9,,2000,2,,001,2021-08-19_16h38.34.376,natb3,2021.2.3,Win32,59.93048064,610486fd0624f488262e7dc8,611e07ecdcc96256ae8d5b80,611e7ab3723c8afdf6ffd1fd,,
,,,,space,,0,201,201,157,1,A, , , , ,space,2500,2.5,,001,2021-08-19_16h38.34.376,natb3,2021.2.3,Win32,59.93048064,610486fd0624f488262e7dc8,611e07ecdcc96256ae8d5b80,611e7ab3723c8afdf6ffd1fd,0.6398,
,,,,,,0,202,202,162,1,X,1,6, ,2,,1500,1.5,,001,2021-08-19_16h38.34.376,natb3,2021.2.3,Win32,59.93048064,610486fd0624f488262e7dc8,611e07ecdcc96256ae8d5b80,611e7ab3723c8afdf6ffd1fd,,
,,,,space,,0,203,203,266,1,O, , , , ,space,1500,1.5,,001,2021-08-19_16h38.34.376,natb3,2021.2.3,Win32,59.93048064,610486fd0624f488262e7dc8,611e07ecdcc96256ae8d5b80,611e7ab3723c8afdf6ffd1fd,0.5718,
,,,,space,,0,204,204,110,1,I, , , , ,space,1500,1.5,,001,2021-08-19_16h38.34.376,natb3,2021.2.3,Win32,59.93048064,610486fd0624f488262e7dc8,611e07ecdcc96256ae8d5b80,611e7ab3723c8afdf6ffd1fd,0.4914,
,,,,space,,0,205,205,73,1,Y, , , , ,space,2000,2,,001,2021-08-19_16h38.34.376,natb3,2021.2.3,Win32,59.93048064,610486fd0624f488262e7dc8,611e07ecdcc96256ae8d5b80,611e7ab3723c8afdf6ffd1fd,0.4401,
,,,,,,0,206,206,282,1,X, , , , ,,2500,2.5,,001,2021-08-19_16h38.34.376,natb3,2021.2.3,Win32,59.93048064,610486fd0624f488262e7dc8,611e07ecdcc96256ae8d5b80,611e7ab3723c8afdf6ffd1fd,,
,,,,space,,0,207,207,111,1,O, , , , ,space,2000,2,,001,2021-08-19_16h38.34.376,natb3,2021.2.3,Win32,59.93048064,610486fd0624f488262e7dc8,611e07ecdcc96256ae8d5b80,611e7ab3723c8afdf6ffd1fd,0.3952,
,,,,space,,0,208,208,135,1,K, , , , ,space,1500,1.5,,001,2021-08-19_16h38.34.376,natb3,2021.2.3,Win32,59.93048064,610486fd0624f488262e7dc8,611e07ecdcc96256ae8d5b80,611e7ab3723c8afdf6ffd1fd,0.4482,
,,,,space,,0,209,209,161,1,F, , , , ,space,1500,1.5,,001,2021-08-19_16h38.34.376,natb3,2021.2.3,Win32,59.93048064,610486fd0624f488262e7dc8,611e07ecdcc96256ae8d5b80,611e7ab3723c8afdf6ffd1fd,0.4036,
,,,,space,,0,210,210,94,1,C, , , , ,space,2000,2,,001,2021-08-19_16h38.34.376,natb3,2021.2.3,Win32,59.93048064,610486fd0624f488262e7dc8,611e07ecdcc96256ae8d5b80,611e7ab3723c8afdf6ffd1fd,0.3807,
,,,,space,,0,211,211,68,1,W, , , , ,space,2500,2.5,,001,2021-08-19_16h38.34.376,natb3,2021.2.3,Win32,59.93048064,610486fd0624f488262e7dc8,611e07ecdcc96256ae8d5b80,611e7ab3723c8afdf6ffd1fd,0.3785,
,,,,,,0,212,212,122,1,X,1, , ,8,,1500,1.5,,001,2021-08-19_16h38.34.376,natb3,2021.2.3,Win32,59.93048064,610486fd0624f488262e7dc8,611e07ecdcc96256ae8d5b80,611e7ab3723c8afdf6ffd1fd,,
,,,,space,,0,213,213,257,1,W, , , , ,space,2000,2,,001,2021-08-19_16h38.34.376,natb3,2021.2.3,Win32,59.93048064,610486fd0624f488262e7dc8,611e07ecdcc96256ae8d5b80,611e7ab3723c8afdf6ffd1fd,0.4271,
,,,,space,,0,214,214,146,1,W, , , , ,space,1500,1.5,,001,2021-08-19_16h38.34.376,natb3,2021.2.3,Win32,59.93048064,610486fd0624f488262e7dc8,611e07ecdcc96256ae8d5b80,611e7ab3723c8afdf6ffd1fd,0.4106,
,,,,space,,0,215,215,267,1,P, , , , ,space,2000,2,,001,2021-08-19_16h38.34.376,natb3,2021.2.3,Win32,59.93048064,610486fd0624f488262e7dc8,611e07ecdcc96256ae8d5b80,611e7ab3723c8afdf6ffd1fd,0.3798,
,,,,,,0,216,216,233,1,X, ,2, ,5,,1500,1.5,,001,2021-08-19_16h38.34.376,natb3,2021.2.3,Win32,59.93048064,610486fd0624f488262e7dc8,611e07ecdcc96256ae8d5b80,611e7ab3723c8afdf6ffd1fd,,
,,,,space,,0,217,217,316,1,Z, , , , ,space,1500,1.5,,001,2021-08-19_16h38.34.376,natb3,2021.2.3,Win32,59.93048064,610486fd0624f488262e7dc8,611e07ecdcc96256ae8d5b80,611e7ab3723c8afdf6ffd1fd,0.7293,
,,,,space,,0,218,218,120,1,U, , , , ,space,1500,1.5,,001,2021-08-19_16h38.34.376,natb3,2021.2.3,Win32,59.93048064,610486fd0624f488262e7dc8,611e07ecdcc96256ae8d5b80,611e7ab3723c8afdf6ffd1fd,0.4224,
,,,,space,,0,219,219,242,1,H, , , , ,space,2500,2.5,,001,2021-08-19_16h38.34.376,natb3,2021.2.3,Win32,59.93048064,610486fd0624f488262e7dc8,611e07ecdcc96256ae8d5b80,611e7ab3723c8afdf6ffd1fd,0.4911,
,,,,space,,0,220,220,223,1,Q, , , , ,space,2000,2,,001,2021-08-19_16h38.34.376,natb3,2021.2.3,Win32,59.93048064,610486fd0624f488262e7dc8,611e07ecdcc96256ae8d5b80,611e7ab3723c8afdf6ffd1fd,0.4031,
,,,,space,,0,221,221,302,1,X, , , , ,,2000,2,,001,2021-08-19_16h38.34.376,natb3,2021.2.3,Win32,59.93048064,610486fd0624f488262e7dc8,611e07ecdcc96256ae8d5b80,611e7ab3723c8afdf6ffd1fd,0.3897,
,,,,space,,0,222,222,304,1,S, , , , ,space,2000,2,,001,2021-08-19_16h38.34.376,natb3,2021.2.3,Win32,59.93048064,610486fd0624f488262e7dc8,611e07ecdcc96256ae8d5b80,611e7ab3723c8afdf6ffd1fd,0.532,
,,,,,,0,223,223,277,1,X,8,5, ,2,,2000,2,,001,2021-08-19_16h38.34.376,natb3,2021.2.3,Win32,59.93048064,610486fd0624f488262e7dc8,611e07ecdcc96256ae8d5b80,611e7ab3723c8afdf6ffd1fd,,
,,,,,,0,224,224,295,1,X,8,7,5, ,,2500,2.5,,001,2021-08-19_16h38.34.376,natb3,2021.2.3,Win32,59.93048064,610486fd0624f488262e7dc8,611e07ecdcc96256ae8d5b80,611e7ab3723c8afdf6ffd1fd,,
,,,,space,,0,225,225,123,1,O, , , , ,space,1500,1.5,,001,2021-08-19_16h38.34.376,natb3,2021.2.3,Win32,59.93048064,610486fd0624f488262e7dc8,611e07ecdcc96256ae8d5b80,611e7ab3723c8afdf6ffd1fd,0.5601,
,,,,,,0,226,226,141,1,X,1, ,4,6,,1500,1.5,,001,2021-08-19_16h38.34.376,natb3,2021.2.3,Win32,59.93048064,610486fd0624f488262e7dc8,611e07ecdcc96256ae8d5b80,611e7ab3723c8afdf6ffd1fd,,
,,,,,,0,227,227,229,1,X,8, ,2,6,,2500,2.5,,001,2021-08-19_16h38.34.376,natb3,2021.2.3,Win32,59.93048064,610486fd0624f488262e7dc8,611e07ecdcc96256ae8d5b80,611e7ab3723c8afdf6ffd1fd,,
,,,,space,,0,228,228,152,1,U, , , , ,space,2000,2,,001,2021-08-19_16h38.34.376,natb3,2021.2.3,Win32,59.93048064,610486fd0624f488262e7dc8,611e07ecdcc96256ae8d5b80,611e7ab3723c8afdf6ffd1fd,0.4592,
,,,,space,,0,229,229,101,1,Q, , , , ,space,2500,2.5,,001,2021-08-19_16h38.34.376,natb3,2021.2.3,Win32,59.93048064,610486fd0624f488262e7dc8,611e07ecdcc96256ae8d5b80,611e7ab3723c8afdf6ffd1fd,0.4198,
,,,,space,,0,230,230,331,1,Y, , , , ,space,2500,2.5,,001,2021-08-19_16h38.34.376,natb3,2021.2.3,Win32,59.93048064,610486fd0624f488262e7dc8,611e07ecdcc96256ae8d5b80,611e7ab3723c8afdf6ffd1fd,0.4686,
,,,,space,,0,231,231,47,1,P, , , , ,space,2000,2,,001,2021-08-19_16h38.34.376,natb3,2021.2.3,Win32,59.93048064,610486fd0624f488262e7dc8,611e07ecdcc96256ae8d5b80,611e7ab3723c8afdf6ffd1fd,0.5321,
,,,,space,,0,232,232,212,1,Q, , , , ,space,2500,2.5,,001,2021-08-19_16h38.34.376,natb3,2021.2.3,Win32,59.93048064,610486fd0624f488262e7dc8,611e07ecdcc96256ae8d5b80,611e7ab3723c8afdf6ffd1fd,0.3713,
,,,,space,,0,233,233,80,1,A, , , , ,space,2000,2,,001,2021-08-19_16h38.34.376,natb3,2021.2.3,Win32,59.93048064,610486fd0624f488262e7dc8,611e07ecdcc96256ae8d5b80,611e7ab3723c8afdf6ffd1fd,0.4634,
,,,,space,,0,234,234,88,1,J, , , , ,space,2500,2.5,,001,2021-08-19_16h38.34.376,natb3,2021.2.3,Win32,59.93048064,610486fd0624f488262e7dc8,611e07ecdcc96256ae8d5b80,611e7ab3723c8afdf6ffd1fd,0.4478,
,,,,space,,0,235,235,178,1,Q, , , , ,space,1500,1.5,,001,2021-08-19_16h38.34.376,natb3,2021.2.3,Win32,59.93048064,610486fd0624f488262e7dc8,611e07ecdcc96256ae8d5b80,611e7ab3723c8afdf6ffd1fd,0.4289,
,,,,space,,0,236,236,290,1,W, , , , ,space,1500,1.5,,001,2021-08-19_16h38.34.376,natb3,2021.2.3,Win32,59.93048064,610486fd0624f488262e7dc8,611e07ecdcc96256ae8d5b80,611e7ab3723c8afdf6ffd1fd,0.4294,
,,,,,,0,237,237,7,1,X, , , , ,,1500,1.5,,001,2021-08-19_16h38.34.376,natb3,2021.2.3,Win32,59.93048064,610486fd0624f488262e7dc8,611e07ecdcc96256ae8d5b80,611e7ab3723c8afdf6ffd1fd,,
,,,,space,,0,238,238,154,1,I, , , , ,space,2500,2.5,,001,2021-08-19_16h38.34.376,natb3,2021.2.3,Win32,59.93048064,610486fd0624f488262e7dc8,611e07ecdcc96256ae8d5b80,611e7ab3723c8afdf6ffd1fd,0.4605,
,,,,space,,0,239,239,208,1,B, , , , ,space,1500,1.5,,001,2021-08-19_16h38.34.376,natb3,2021.2.3,Win32,59.93048064,610486fd0624f488262e7dc8,611e07ecdcc96256ae8d5b80,611e7ab3723c8afdf6ffd1fd,0.3562,
,,,,space,,0,240,240,172,1,C, , , , ,space,1500,1.5,,001,2021-08-19_16h38.34.376,natb3,2021.2.3,Win32,59.93048064,610486fd0624f488262e7dc8,611e07ecdcc96256ae8d5b80,611e7ab3723c8afdf6ffd1fd,0.3731,
,,,,space,,0,241,241,63,1,B, , , , ,space,2000,2,,001,2021-08-19_16h38.34.376,natb3,2021.2.3,Win32,59.93048064,610486fd0624f488262e7dc8,611e07ecdcc96256ae8d5b80,611e7ab3723c8afdf6ffd1fd,0.3524,
,,,,,,0,242,242,60,1,X,7,3,5, ,,1500,1.5,,001,2021-08-19_16h38.34.376,natb3,2021.2.3,Win32,59.93048064,610486fd0624f488262e7dc8,611e07ecdcc96256ae8d5b80,611e7ab3723c8afdf6ffd1fd,,
,,,,space,,0,243,243,21,1,J, , , , ,space,1500,1.5,,001,2021-08-19_16h38.34.376,natb3,2021.2.3,Win32,59.93048064,610486fd0624f488262e7dc8,611e07ecdcc96256ae8d5b80,611e7ab3723c8afdf6ffd1fd,0.4707,
,,,,space,,0,244,244,57,1,K, , , , ,space,2500,2.5,,001,2021-08-19_16h38.34.376,natb3,2021.2.3,Win32,59.93048064,610486fd0624f488262e7dc8,611e07ecdcc96256ae8d5b80,611e7ab3723c8afdf6ffd1fd,0.4177,
,,,,,,0,245,245,33,1,X, , , , ,,1500,1.5,,001,2021-08-19_16h38.34.376,natb3,2021.2.3,Win32,59.93048064,610486fd0624f488262e7dc8,611e07ecdcc96256ae8d5b80,611e7ab3723c8afdf6ffd1fd,,
,,,,space,,0,246,246,224,1,W, , , , ,space,1500,1.5,,001,2021-08-19_16h38.34.376,natb3,2021.2.3,Win32,59.93048064,610486fd0624f488262e7dc8,611e07ecdcc96256ae8d5b80,611e7ab3723c8afdf6ffd1fd,0.3854,
,,,,,,0,247,247,243,1,X, , , , ,,2500,2.5,,001,2021-08-19_16h38.34.376,natb3,2021.2.3,Win32,59.93048064,610486fd0624f488262e7dc8,611e07ecdcc96256ae8d5b80,611e7ab3723c8afdf6ffd1fd,,
,,,,space,,0,248,248,22,1,K, , , , ,space,2000,2,,001,2021-08-19_16h38.34.376,natb3,2021.2.3,Win32,59.93048064,610486fd0624f488262e7dc8,611e07ecdcc96256ae8d5b80,611e7ab3723c8afdf6ffd1fd,0.3792,
,,,,space,,0,249,249,252,1,X,3, ,6,9,,2000,2,,001,2021-08-19_16h38.34.376,natb3,2021.2.3,Win32,59.93048064,610486fd0624f488262e7dc8,611e07ecdcc96256ae8d5b80,611e7ab3723c8afdf6ffd1fd,0.3843,
,,,,,,0,250,250,305,1,X, , , , ,,1500,1.5,,001,2021-08-19_16h38.34.376,natb3,2021.2.3,Win32,59.93048064,610486fd0624f488262e7dc8,611e07ecdcc96256ae8d5b80,611e7ab3723c8afdf6ffd1fd,,
,,,,space,,0,251,251,40,1,T, , , , ,space,1500,1.5,,001,2021-08-19_16h38.34.376,natb3,2021.2.3,Win32,59.93048064,610486fd0624f488262e7dc8,611e07ecdcc96256ae8d5b80,611e7ab3723c8afdf6ffd1fd,0.3976,
,,,,,,0,252,252,15,1,X, , , , ,,1500,1.5,,001,2021-08-19_16h38.34.376,natb3,2021.2.3,Win32,59.93048064,610486fd0624f488262e7dc8,611e07ecdcc96256ae8d5b80,611e7ab3723c8afdf6ffd1fd,,
,,,,space,,0,253,253,48,1,A, , , , ,space,2500,2.5,,001,2021-08-19_16h38.34.376,natb3,2021.2.3,Win32,59.93048064,610486fd0624f488262e7dc8,611e07ecdcc96256ae8d5b80,611e7ab3723c8afdf6ffd1fd,0.4497,
,,,,space,,0,254,254,334,1,O, , , , ,space,1500,1.5,,001,2021-08-19_16h38.34.376,natb3,2021.2.3,Win32,59.93048064,610486fd0624f488262e7dc8,611e07ecdcc96256ae8d5b80,611e7ab3723c8afdf6ffd1fd,0.5184,
,,,,space,,0,255,255,227,1,T, , , , ,space,1500,1.5,,001,2021-08-19_16h38.34.376,natb3,2021.2.3,Win32,59.93048064,610486fd0624f488262e7dc8,611e07ecdcc96256ae8d5b80,611e7ab3723c8afdf6ffd1fd,0.4464,
,,,,space,,0,256,256,332,1,U, , , , ,space,2000,2,,001,2021-08-19_16h38.34.376,natb3,2021.2.3,Win32,59.93048064,610486fd0624f488262e7dc8,611e07ecdcc96256ae8d5b80,611e7ab3723c8afdf6ffd1fd,0.5529,
,,,,space,,0,257,257,164,1,H, , , , ,space,2500,2.5,,001,2021-08-19_16h38.34.376,natb3,2021.2.3,Win32,59.93048064,610486fd0624f488262e7dc8,611e07ecdcc96256ae8d5b80,611e7ab3723c8afdf6ffd1fd,0.6225,
,,,,space,,0,258,258,140,1,B, , , , ,space,2500,2.5,,001,2021-08-19_16h38.34.376,natb3,2021.2.3,Win32,59.93048064,610486fd0624f488262e7dc8,611e07ecdcc96256ae8d5b80,611e7ab3723c8afdf6ffd1fd,0.4065,
,,,,space,,0,259,259,293,1,R, , , , ,space,2500,2.5,,001,2021-08-19_16h38.34.376,natb3,2021.2.3,Win32,59.93048064,610486fd0624f488262e7dc8,611e07ecdcc96256ae8d5b80,611e7ab3723c8afdf6ffd1fd,0.4041,
,,,,space,,0,260,260,194,1,D, , , , ,space,2000,2,,001,2021-08-19_16h38.34.376,natb3,2021.2.3,Win32,59.93048064,610486fd0624f488262e7dc8,611e07ecdcc96256ae8d5b80,611e7ab3723c8afdf6ffd1fd,0.3698,
,,,,space,,0,261,261,20,1,H, , , , ,space,1500,1.5,,001,2021-08-19_16h38.34.376,natb3,2021.2.3,Win32,59.93048064,610486fd0624f488262e7dc8,611e07ecdcc96256ae8d5b80,611e7ab3723c8afdf6ffd1fd,0.3619,
,,,,space,,0,262,262,10,1,O, , , , ,space,2000,2,,001,2021-08-19_16h38.34.376,natb3,2021.2.3,Win32,59.93048064,610486fd0624f488262e7dc8,611e07ecdcc96256ae8d5b80,611e7ab3723c8afdf6ffd1fd,0.3799,
,,,,space,,0,263,263,310,1,J, , , , ,space,2500,2.5,,001,2021-08-19_16h38.34.376,natb3,2021.2.3,Win32,59.93048064,610486fd0624f488262e7dc8,611e07ecdcc96256ae8d5b80,611e7ab3723c8afdf6ffd1fd,0.392,
,,,,space,,0,264,264,189,1,O, , , , ,space,1500,1.5,,001,2021-08-19_16h38.34.376,natb3,2021.2.3,Win32,59.93048064,610486fd0624f488262e7dc8,611e07ecdcc96256ae8d5b80,611e7ab3723c8afdf6ffd1fd,0.4903,
,,,,space,,0,265,265,58,1,L, , , , ,space,2000,2,,001,2021-08-19_16h38.34.376,natb3,2021.2.3,Win32,59.93048064,610486fd0624f488262e7dc8,611e07ecdcc96256ae8d5b80,611e7ab3723c8afdf6ffd1fd,0.3434,
,,,,space,,0,266,266,149,1,R, , , , ,space,2000,2,,001,2021-08-19_16h38.34.376,natb3,2021.2.3,Win32,59.93048064,610486fd0624f488262e7dc8,611e07ecdcc96256ae8d5b80,611e7ab3723c8afdf6ffd1fd,0.3842,
,,,,space,,0,267,267,76,1,I, , , , ,space,2000,2,,001,2021-08-19_16h38.34.376,natb3,2021.2.3,Win32,59.93048064,610486fd0624f488262e7dc8,611e07ecdcc96256ae8d5b80,611e7ab3723c8afdf6ffd1fd,0.3509,
,,,,space,,0,268,268,131,1,G, , , , ,space,1500,1.5,,001,2021-08-19_16h38.34.376,natb3,2021.2.3,Win32,59.93048064,610486fd0624f488262e7dc8,611e07ecdcc96256ae8d5b80,611e7ab3723c8afdf6ffd1fd,0.3941,
,,,,,,0,269,269,200,1,X,7, ,5,3,,1500,1.5,,001,2021-08-19_16h38.34.376,natb3,2021.2.3,Win32,59.93048064,610486fd0624f488262e7dc8,611e07ecdcc96256ae8d5b80,611e7ab3723c8afdf6ffd1fd,,
,,,,space,,0,270,270,192,1,A, , , , ,space,2000,2,,001,2021-08-19_16h38.34.376,natb3,2021.2.3,Win32,59.93048064,610486fd0624f488262e7dc8,611e07ecdcc96256ae8d5b80,611e7ab3723c8afdf6ffd1fd,0.57,
,,,,space,,0,271,271,100,1,M, , , , ,space,2000,2,,001,2021-08-19_16h38.34.376,natb3,2021.2.3,Win32,59.93048064,610486fd0624f488262e7dc8,611e07ecdcc96256ae8d5b80,611e7ab3723c8afdf6ffd1fd,0.5008,
,,,,,,0,272,272,54,1,X, , , , ,,2000,2,,001,2021-08-19_16h38.34.376,natb3,2021.2.3,Win32,59.93048064,610486fd0624f488262e7dc8,611e07ecdcc96256ae8d5b80,611e7ab3723c8afdf6ffd1fd,,
,,,,space,,0,273,273,214,1,W, , , , ,space,2000,2,,001,2021-08-19_16h38.34.376,natb3,2021.2.3,Win32,59.93048064,610486fd0624f488262e7dc8,611e07ecdcc96256ae8d5b80,611e7ab3723c8afdf6ffd1fd,0.5194,
,,,,space,,0,274,274,188,1,I, , , , ,space,2500,2.5,,001,2021-08-19_16h38.34.376,natb3,2021.2.3,Win32,59.93048064,610486fd0624f488262e7dc8,611e07ecdcc96256ae8d5b80,611e7ab3723c8afdf6ffd1fd,0.3713,
,,,,space,,0,275,275,91,1,L, , , , ,space,2000,2,,001,2021-08-19_16h38.34.376,natb3,2021.2.3,Win32,59.93048064,610486fd0624f488262e7dc8,611e07ecdcc96256ae8d5b80,611e7ab3723c8afdf6ffd1fd,0.4045,
,,,,space,,0,276,276,216,1,R, , , , ,space,1500,1.5,,001,2021-08-19_16h38.34.376,natb3,2021.2.3,Win32,59.93048064,610486fd0624f488262e7dc8,611e07ecdcc96256ae8d5b80,611e7ab3723c8afdf6ffd1fd,0.4537,
,,,,space,,0,277,277,319,1,V, , , , ,space,2000,2,,001,2021-08-19_16h38.34.376,natb3,2021.2.3,Win32,59.93048064,610486fd0624f488262e7dc8,611e07ecdcc96256ae8d5b80,611e7ab3723c8afdf6ffd1fd,0.4245,
,,,,space,,0,278,278,169,1,L, , , , ,space,2500,2.5,,001,2021-08-19_16h38.34.376,natb3,2021.2.3,Win32,59.93048064,610486fd0624f488262e7dc8,611e07ecdcc96256ae8d5b80,611e7ab3723c8afdf6ffd1fd,0.3886,
,,,,space,,0,279,279,285,1,B, , , , ,space,1500,1.5,,001,2021-08-19_16h38.34.376,natb3,2021.2.3,Win32,59.93048064,610486fd0624f488262e7dc8,611e07ecdcc96256ae8d5b80,611e7ab3723c8afdf6ffd1fd,0.567,
,,,,space,,0,280,280,112,1,Q, , , , ,space,2500,2.5,,001,2021-08-19_16h38.34.376,natb3,2021.2.3,Win32,59.93048064,610486fd0624f488262e7dc8,611e07ecdcc96256ae8d5b80,611e7ab3723c8afdf6ffd1fd,0.3878,
,,,,,,0,281,281,335,1,P,,,,,space,1500,1.5,,001,2021-08-19_16h38.34.376,natb3,2021.2.3,Win32,59.93048064,610486fd0624f488262e7dc8,611e07ecdcc96256ae8d5b80,611e7ab3723c8afdf6ffd1fd,,
,,,,space,,0,282,282,308,1,G, , , , ,space,1500,1.5,,001,2021-08-19_16h38.34.376,natb3,2021.2.3,Win32,59.93048064,610486fd0624f488262e7dc8,611e07ecdcc96256ae8d5b80,611e7ab3723c8afdf6ffd1fd,0.8256,
,,,,,,0,283,283,102,1,X, ,6, , ,,1500,1.5,,001,2021-08-19_16h38.34.376,natb3,2021.2.3,Win32,59.93048064,610486fd0624f488262e7dc8,611e07ecdcc96256ae8d5b80,611e7ab3723c8afdf6ffd1fd,,
,,,,space,,0,284,284,85,1,F, , , , ,space,2500,2.5,,001,2021-08-19_16h38.34.376,natb3,2021.2.3,Win32,59.93048064,610486fd0624f488262e7dc8,611e07ecdcc96256ae8d5b80,611e7ab3723c8afdf6ffd1fd,0.4064,
,,,,space,,0,285,285,115,1,R, , , , ,space,1500,1.5,,001,2021-08-19_16h38.34.376,natb3,2021.2.3,Win32,59.93048064,610486fd0624f488262e7dc8,611e07ecdcc96256ae8d5b80,611e7ab3723c8afdf6ffd1fd,0.3532,
,,,,space,,0,286,286,170,1,Z, , , , ,space,2000,2,,001,2021-08-19_16h38.34.376,natb3,2021.2.3,Win32,59.93048064,610486fd0624f488262e7dc8,611e07ecdcc96256ae8d5b80,611e7ab3723c8afdf6ffd1fd,0.3425,
,,,,space,,0,287,287,234,1,P, , , , ,space,2000,2,,001,2021-08-19_16h38.34.376,natb3,2021.2.3,Win32,59.93048064,610486fd0624f488262e7dc8,611e07ecdcc96256ae8d5b80,611e7ab3723c8afdf6ffd1fd,0.3148,
,,,,space,,0,288,288,300,1,O, , , , ,space,2500,2.5,,001,2021-08-19_16h38.34.376,natb3,2021.2.3,Win32,59.93048064,610486fd0624f488262e7dc8,611e07ecdcc96256ae8d5b80,611e7ab3723c8afdf6ffd1fd,0.346,
,,,,space,,0,289,289,210,1,M, , , , ,space,1500,1.5,,001,2021-08-19_16h38.34.376,natb3,2021.2.3,Win32,59.93048064,610486fd0624f488262e7dc8,611e07ecdcc96256ae8d5b80,611e7ab3723c8afdf6ffd1fd,0.3791,
,,,,space,,0,290,290,291,1,X, , , , ,,2000,2,,001,2021-08-19_16h38.34.376,natb3,2021.2.3,Win32,59.93048064,610486fd0624f488262e7dc8,611e07ecdcc96256ae8d5b80,611e7ab3723c8afdf6ffd1fd,0.2613,
,,,,space,,0,291,291,309,1,H, , , , ,space,2500,2.5,,001,2021-08-19_16h38.34.376,natb3,2021.2.3,Win32,59.93048064,610486fd0624f488262e7dc8,611e07ecdcc96256ae8d5b80,611e7ab3723c8afdf6ffd1fd,0.3956,
,,,,space,,0,292,292,294,1,T, , , , ,space,2000,2,,001,2021-08-19_16h38.34.376,natb3,2021.2.3,Win32,59.93048064,610486fd0624f488262e7dc8,611e07ecdcc96256ae8d5b80,611e7ab3723c8afdf6ffd1fd,0.3344,
,,,,space,,0,293,293,237,1,S, , , , ,space,1500,1.5,,001,2021-08-19_16h38.34.376,natb3,2021.2.3,Win32,59.93048064,610486fd0624f488262e7dc8,611e07ecdcc96256ae8d5b80,611e7ab3723c8afdf6ffd1fd,0.3849,
,,,,space,,0,294,294,156,1,P, , , , ,space,1500,1.5,,001,2021-08-19_16h38.34.376,natb3,2021.2.3,Win32,59.93048064,610486fd0624f488262e7dc8,611e07ecdcc96256ae8d5b80,611e7ab3723c8afdf6ffd1fd,0.3401,
,,,,space,,0,295,295,139,1,V, , , , ,space,2000,2,,001,2021-08-19_16h38.34.376,natb3,2021.2.3,Win32,59.93048064,610486fd0624f488262e7dc8,611e07ecdcc96256ae8d5b80,611e7ab3723c8afdf6ffd1fd,0.319,
,,,,space,,0,296,296,247,1,Z, , , , ,space,1500,1.5,,001,2021-08-19_16h38.34.376,natb3,2021.2.3,Win32,59.93048064,610486fd0624f488262e7dc8,611e07ecdcc96256ae8d5b80,611e7ab3723c8afdf6ffd1fd,0.3698,
,,,,space,,0,297,297,44,1,I, , , , ,space,2500,2.5,,001,2021-08-19_16h38.34.376,natb3,2021.2.3,Win32,59.93048064,610486fd0624f488262e7dc8,611e07ecdcc96256ae8d5b80,611e7ab3723c8afdf6ffd1fd,0.4853,
,,,,space,,0,298,298,220,1,U, , , , ,space,2500,2.5,,001,2021-08-19_16h38.34.376,natb3,2021.2.3,Win32,59.93048064,610486fd0624f488262e7dc8,611e07ecdcc96256ae8d5b80,611e7ab3723c8afdf6ffd1fd,0.3943,
,,,,space,,0,299,299,67,1,Q, , , , ,space,2000,2,,001,2021-08-19_16h38.34.376,natb3,2021.2.3,Win32,59.93048064,610486fd0624f488262e7dc8,611e07ecdcc96256ae8d5b80,611e7ab3723c8afdf6ffd1fd,0.3803,
,,,,space,,0,300,300,196,1,F, , , , ,space,1500,1.5,,001,2021-08-19_16h38.34.376,natb3,2021.2.3,Win32,59.93048064,610486fd0624f488262e7dc8,611e07ecdcc96256ae8d5b80,611e7ab3723c8afdf6ffd1fd,0.3843,
,,,,space,,0,301,301,17,1,F, , , , ,space,2500,2.5,,001,2021-08-19_16h38.34.376,natb3,2021.2.3,Win32,59.93048064,610486fd0624f488262e7dc8,611e07ecdcc96256ae8d5b80,611e7ab3723c8afdf6ffd1fd,0.3217,
,,,,,,0,302,302,96,1,X, , , , ,,1500,1.5,,001,2021-08-19_16h38.34.376,natb3,2021.2.3,Win32,59.93048064,610486fd0624f488262e7dc8,611e07ecdcc96256ae8d5b80,611e7ab3723c8afdf6ffd1fd,,
,,,,space,,0,303,303,180,1,W, , , , ,space,2000,2,,001,2021-08-19_16h38.34.376,natb3,2021.2.3,Win32,59.93048064,610486fd0624f488262e7dc8,611e07ecdcc96256ae8d5b80,611e7ab3723c8afdf6ffd1fd,0.6038,
,,,,space,,0,304,304,307,1,F, , , , ,space,2500,2.5,,001,2021-08-19_16h38.34.376,natb3,2021.2.3,Win32,59.93048064,610486fd0624f488262e7dc8,611e07ecdcc96256ae8d5b80,611e7ab3723c8afdf6ffd1fd,0.333,
,,,,space,,0,305,305,317,1,C, , , , ,space,2000,2,,001,2021-08-19_16h38.34.376,natb3,2021.2.3,Win32,59.93048064,610486fd0624f488262e7dc8,611e07ecdcc96256ae8d5b80,611e7ab3723c8afdf6ffd1fd,0.2968,
,,,,space,,0,306,306,37,1,E, , , , ,space,2500,2.5,,001,2021-08-19_16h38.34.376,natb3,2021.2.3,Win32,59.93048064,610486fd0624f488262e7dc8,611e07ecdcc96256ae8d5b80,611e7ab3723c8afdf6ffd1fd,0.3265,
,,,,space,,0,307,307,41,1,Y, , , , ,space,2500,2.5,,001,2021-08-19_16h38.34.376,natb3,2021.2.3,Win32,59.93048064,610486fd0624f488262e7dc8,611e07ecdcc96256ae8d5b80,611e7ab3723c8afdf6ffd1fd,0.6661,
,,,,space,,0,308,308,327,1,E, , , , ,space,1500,1.5,,001,2021-08-19_16h38.34.376,natb3,2021.2.3,Win32,59.93048064,610486fd0624f488262e7dc8,611e07ecdcc96256ae8d5b80,611e7ab3723c8afdf6ffd1fd,0.2746,
,,,,space,,0,309,309,132,1,H, , , , ,space,2500,2.5,,001,2021-08-19_16h38.34.376,natb3,2021.2.3,Win32,59.93048064,610486fd0624f488262e7dc8,611e07ecdcc96256ae8d5b80,611e7ab3723c8afdf6ffd1fd,0.3279,
,,,,space,,0,310,310,176,1,N, , , , ,space,1500,1.5,,001,2021-08-19_16h38.34.376,natb3,2021.2.3,Win32,59.93048064,610486fd0624f488262e7dc8,611e07ecdcc96256ae8d5b80,611e7ab3723c8afdf6ffd1fd,0.3357,
,,,,space,,0,311,311,262,1,Y, , , , ,space,2500,2.5,,001,2021-08-19_16h38.34.376,natb3,2021.2.3,Win32,59.93048064,610486fd0624f488262e7dc8,611e07ecdcc96256ae8d5b80,611e7ab3723c8afdf6ffd1fd,0.3013,
,,,,space,,0,312,312,246,1,L, , , , ,space,2500,2.5,,001,2021-08-19_16h38.34.376,natb3,2021.2.3,Win32,59.93048064,610486fd0624f488262e7dc8,611e07ecdcc96256ae8d5b80,611e7ab3723c8afdf6ffd1fd,0.3019,
,,,,,,0,313,313,168,1,X, , , , ,,2500,2.5,,001,2021-08-19_16h38.34.376,natb3,2021.2.3,Win32,59.93048064,610486fd0624f488262e7dc8,611e07ecdcc96256ae8d5b80,611e7ab3723c8afdf6ffd1fd,,
,,,,space,,0,314,314,206,1,V, , , , ,space,2000,2,,001,2021-08-19_16h38.34.376,natb3,2021.2.3,Win32,59.93048064,610486fd0624f488262e7dc8,611e07ecdcc96256ae8d5b80,611e7ab3723c8afdf6ffd1fd,0.4352,
,,,,space,,0,315,315,56,1,J, , , , ,space,1500,1.5,,001,2021-08-19_16h38.34.376,natb3,2021.2.3,Win32,59.93048064,610486fd0624f488262e7dc8,611e07ecdcc96256ae8d5b80,611e7ab3723c8afdf6ffd1fd,0.2945,
,,,,space,,0,316,316,136,1,Z, , , , ,space,2500,2.5,,001,2021-08-19_16h38.34.376,natb3,2021.2.3,Win32,59.93048064,610486fd0624f488262e7dc8,611e07ecdcc96256ae8d5b80,611e7ab3723c8afdf6ffd1fd,0.3095,
,,,,space,,0,317,317,197,1,G, , , , ,space,2500,2.5,,001,2021-08-19_16h38.34.376,natb3,2021.2.3,Win32,59.93048064,610486fd0624f488262e7dc8,611e07ecdcc96256ae8d5b80,611e7ab3723c8afdf6ffd1fd,0.3344,
,,,,space,,0,318,318,82,1,X,4,6,1,7,,2000,2,,001,2021-08-19_16h38.34.376,natb3,2021.2.3,Win32,59.93048064,610486fd0624f488262e7dc8,611e07ecdcc96256ae8d5b80,611e7ab3723c8afdf6ffd1fd,0.5049,
,,,,,,0,319,319,171,1,X, , , , ,,1500,1.5,,001,2021-08-19_16h38.34.376,natb3,2021.2.3,Win32,59.93048064,610486fd0624f488262e7dc8,611e07ecdcc96256ae8d5b80,611e7ab3723c8afdf6ffd1fd,,
,,,,,,0,320,320,318,1,X, , , , ,,1500,1.5,,001,2021-08-19_16h38.34.376,natb3,2021.2.3,Win32,59.93048064,610486fd0624f488262e7dc8,611e07ecdcc96256ae8d5b80,611e7ab3723c8afdf6ffd1fd,,
,,,,space,,0,321,321,269,1,A, , , , ,space,2500,2.5,,001,2021-08-19_16h38.34.376,natb3,2021.2.3,Win32,59.93048064,610486fd0624f488262e7dc8,611e07ecdcc96256ae8d5b80,611e7ab3723c8afdf6ffd1fd,0.3901,
,,,,space,,0,322,322,90,1,K, , , , ,space,2000,2,,001,2021-08-19_16h38.34.376,natb3,2021.2.3,Win32,59.93048064,610486fd0624f488262e7dc8,611e07ecdcc96256ae8d5b80,611e7ab3723c8afdf6ffd1fd,0.4339,
,,,,space,,0,323,323,30,1,N, , , , ,space,2500,2.5,,001,2021-08-19_16h38.34.376,natb3,2021.2.3,Win32,59.93048064,610486fd0624f488262e7dc8,611e07ecdcc96256ae8d5b80,611e7ab3723c8afdf6ffd1fd,0.3116,
,,,,,,0,324,324,78,1,X, , , , ,,2000,2,,001,2021-08-19_16h38.34.376,natb3,2021.2.3,Win32,59.93048064,610486fd0624f488262e7dc8,611e07ecdcc96256ae8d5b80,611e7ab3723c8afdf6ffd1fd,,
,,,,space,,0,325,325,288,1,M, , , , ,space,1500,1.5,,001,2021-08-19_16h38.34.376,natb3,2021.2.3,Win32,59.93048064,610486fd0624f488262e7dc8,611e07ecdcc96256ae8d5b80,611e7ab3723c8afdf6ffd1fd,0.3349,
,,,,space,,0,326,326,228,1,Y, , , , ,space,2000,2,,001,2021-08-19_16h38.34.376,natb3,2021.2.3,Win32,59.93048064,610486fd0624f488262e7dc8,611e07ecdcc96256ae8d5b80,611e7ab3723c8afdf6ffd1fd,0.5358,
,,,,space,,0,327,327,109,1,U, , , , ,space,1500,1.5,,001,2021-08-19_16h38.34.376,natb3,2021.2.3,Win32,59.93048064,610486fd0624f488262e7dc8,611e07ecdcc96256ae8d5b80,611e7ab3723c8afdf6ffd1fd,0.4791,
,,,,,,0,328,328,93,1,X,5, ,7, ,,2500,2.5,,001,2021-08-19_16h38.34.376,natb3,2021.2.3,Win32,59.93048064,610486fd0624f488262e7dc8,611e07ecdcc96256ae8d5b80,611e7ab3723c8afdf6ffd1fd,,
,,,,space,,0,329,329,281,1,Z, , , , ,space,1500,1.5,,001,2021-08-19_16h38.34.376,natb3,2021.2.3,Win32,59.93048064,610486fd0624f488262e7dc8,611e07ecdcc96256ae8d5b80,611e7ab3723c8afdf6ffd1fd,0.5797,
,,,,space,,0,330,330,258,1,E, , , , ,space,1500,1.5,,001,2021-08-19_16h38.34.376,natb3,2021.2.3,Win32,59.93048064,610486fd0624f488262e7dc8,611e07ecdcc96256ae8d5b80,611e7ab3723c8afdf6ffd1fd,0.5927,
,,,,,,0,331,331,23,1,X,1, ,5, ,,2000,2,,001,2021-08-19_16h38.34.376,natb3,2021.2.3,Win32,59.93048064,610486fd0624f488262e7dc8,611e07ecdcc96256ae8d5b80,611e7ab3723c8afdf6ffd1fd,,
,,,,space,,0,332,332,3,1,R, , , , ,space,2000,2,,001,2021-08-19_16h38.34.376,natb3,2021.2.3,Win32,59.93048064,610486fd0624f488262e7dc8,611e07ecdcc96256ae8d5b80,611e7ab3723c8afdf6ffd1fd,0.5426,
,,,,,,0,333,333,311,1,X,1,2,7,3,,2500,2.5,,001,2021-08-19_16h38.34.376,natb3,2021.2.3,Win32,59.93048064,610486fd0624f488262e7dc8,611e07ecdcc96256ae8d5b80,611e7ab3723c8afdf6ffd1fd,,
,,,,,,0,334,334,116,1,X, , , , ,,2000,2,,001,2021-08-19_16h38.34.376,natb3,2021.2.3,Win32,59.93048064,610486fd0624f488262e7dc8,611e07ecdcc96256ae8d5b80,611e7ab3723c8afdf6ffd1fd,,
,,,,,,0,335,335,35,1,X, , , , ,,2500,2.5,,001,2021-08-19_16h38.34.376,natb3,2021.2.3,Win32,59.93048064,610486fd0624f488262e7dc8,611e07ecdcc96256ae8d5b80,611e7ab3723c8afdf6ffd1fd,,
