key_resp_2.keys,key_resp_2.rt,key_resp_3.keys,key_resp_3.rt,key_resp.keys,key_resp_4.keys,trials.thisRepN,trials.thisTrialN,trials.thisN,trials.thisIndex,trials.ran,stimulus,distractor1,distractor2,distractor3,distractor4,CorrAns,isi_duration,isi_dur_in_seconds,participant,session,date,expName,psychopyVersion,OS,frameRate,PROLIFIC_PID,STUDY_ID,SESSION_ID,key_resp.rt,key_resp_4.rt
return,38.896,space,23.0995,,,0,0,0,162,1,X,1,6, ,2,,1500,1.5,,001,2021-08-19_16h26.37.253,natb3,2021.2.3,Win32,144.1753172,611a665e428e9a57ba0de804,611e07ecdcc96256ae8d5b80,611e77d6cdb681c8c670b052,,
,,,,space,,0,1,1,129,1,X,2,3,5, ,,1500,1.5,,001,2021-08-19_16h26.37.253,natb3,2021.2.3,Win32,144.1753172,611a665e428e9a57ba0de804,611e07ecdcc96256ae8d5b80,611e77d6cdb681c8c670b052,0.2313,
,,,,space,,0,2,2,144,1,Q, , , , ,space,2500,2.5,,001,2021-08-19_16h26.37.253,natb3,2021.2.3,Win32,144.1753172,611a665e428e9a57ba0de804,611e07ecdcc96256ae8d5b80,611e77d6cdb681c8c670b052,0.4503,
,,,,space,,0,3,3,146,1,W, , , , ,space,1500,1.5,,001,2021-08-19_16h26.37.253,natb3,2021.2.3,Win32,144.1753172,611a665e428e9a57ba0de804,611e07ecdcc96256ae8d5b80,611e77d6cdb681c8c670b052,0.3607,
,,,,,,0,4,4,125,1,X, , , , ,,2000,2,,001,2021-08-19_16h26.37.253,natb3,2021.2.3,Win32,144.1753172,611a665e428e9a57ba0de804,611e07ecdcc96256ae8d5b80,611e77d6cdb681c8c670b052,,
,,,,space,,0,5,5,293,1,R, , , , ,space,2500,2.5,,001,2021-08-19_16h26.37.253,natb3,2021.2.3,Win32,144.1753172,611a665e428e9a57ba0de804,611e07ecdcc96256ae8d5b80,611e77d6cdb681c8c670b052,0.3497,
,,,,,,0,6,6,141,1,X,1, ,4,6,,1500,1.5,,001,2021-08-19_16h26.37.253,natb3,2021.2.3,Win32,144.1753172,611a665e428e9a57ba0de804,611e07ecdcc96256ae8d5b80,611e77d6cdb681c8c670b052,,
,,,,space,,0,7,7,274,1,F, , , , ,space,2000,2,,001,2021-08-19_16h26.37.253,natb3,2021.2.3,Win32,144.1753172,611a665e428e9a57ba0de804,611e07ecdcc96256ae8d5b80,611e77d6cdb681c8c670b052,0.3928,
,,,,,,0,8,8,23,1,X,1, ,5, ,,2000,2,,001,2021-08-19_16h26.37.253,natb3,2021.2.3,Win32,144.1753172,611a665e428e9a57ba0de804,611e07ecdcc96256ae8d5b80,611e77d6cdb681c8c670b052,,
,,,,space,,0,9,9,285,1,B, , , , ,space,1500,1.5,,001,2021-08-19_16h26.37.253,natb3,2021.2.3,Win32,144.1753172,611a665e428e9a57ba0de804,611e07ecdcc96256ae8d5b80,611e77d6cdb681c8c670b052,0.2739,
,,,,space,,0,10,10,171,1,X, , , , ,,1500,1.5,,001,2021-08-19_16h26.37.253,natb3,2021.2.3,Win32,144.1753172,611a665e428e9a57ba0de804,611e07ecdcc96256ae8d5b80,611e77d6cdb681c8c670b052,0.287,
,,,,space,,0,11,11,193,1,S, , , , ,space,2500,2.5,,001,2021-08-19_16h26.37.253,natb3,2021.2.3,Win32,144.1753172,611a665e428e9a57ba0de804,611e07ecdcc96256ae8d5b80,611e77d6cdb681c8c670b052,0.3455,
,,,,,,0,12,12,15,1,X, , , , ,,1500,1.5,,001,2021-08-19_16h26.37.253,natb3,2021.2.3,Win32,144.1753172,611a665e428e9a57ba0de804,611e07ecdcc96256ae8d5b80,611e77d6cdb681c8c670b052,,
,,,,space,,0,13,13,284,1,V, , , , ,space,2500,2.5,,001,2021-08-19_16h26.37.253,natb3,2021.2.3,Win32,144.1753172,611a665e428e9a57ba0de804,611e07ecdcc96256ae8d5b80,611e77d6cdb681c8c670b052,0.476,
,,,,space,,0,14,14,92,1,Z, , , , ,space,1500,1.5,,001,2021-08-19_16h26.37.253,natb3,2021.2.3,Win32,144.1753172,611a665e428e9a57ba0de804,611e07ecdcc96256ae8d5b80,611e77d6cdb681c8c670b052,0.4734,
,,,,space,,0,15,15,152,1,U, , , , ,space,2000,2,,001,2021-08-19_16h26.37.253,natb3,2021.2.3,Win32,144.1753172,611a665e428e9a57ba0de804,611e07ecdcc96256ae8d5b80,611e77d6cdb681c8c670b052,0.4488,
,,,,space,,0,16,16,192,1,A, , , , ,space,2000,2,,001,2021-08-19_16h26.37.253,natb3,2021.2.3,Win32,144.1753172,611a665e428e9a57ba0de804,611e07ecdcc96256ae8d5b80,611e77d6cdb681c8c670b052,0.4396,
,,,,,,0,17,17,12,1,X, , , , ,,1500,1.5,,001,2021-08-19_16h26.37.253,natb3,2021.2.3,Win32,144.1753172,611a665e428e9a57ba0de804,611e07ecdcc96256ae8d5b80,611e77d6cdb681c8c670b052,,
,,,,space,,0,18,18,109,1,U, , , , ,space,1500,1.5,,001,2021-08-19_16h26.37.253,natb3,2021.2.3,Win32,144.1753172,611a665e428e9a57ba0de804,611e07ecdcc96256ae8d5b80,611e77d6cdb681c8c670b052,0.4262,
,,,,space,,0,19,19,294,1,T, , , , ,space,2000,2,,001,2021-08-19_16h26.37.253,natb3,2021.2.3,Win32,144.1753172,611a665e428e9a57ba0de804,611e07ecdcc96256ae8d5b80,611e77d6cdb681c8c670b052,0.6395,
,,,,,,0,20,20,179,1,X, ,9, ,2,,1500,1.5,,001,2021-08-19_16h26.37.253,natb3,2021.2.3,Win32,144.1753172,611a665e428e9a57ba0de804,611e07ecdcc96256ae8d5b80,611e77d6cdb681c8c670b052,,
,,,,,,0,21,21,7,1,X, , , , ,,1500,1.5,,001,2021-08-19_16h26.37.253,natb3,2021.2.3,Win32,144.1753172,611a665e428e9a57ba0de804,611e07ecdcc96256ae8d5b80,611e77d6cdb681c8c670b052,,
,,,,space,,0,22,22,185,1,Y, , , , ,space,2500,2.5,,001,2021-08-19_16h26.37.253,natb3,2021.2.3,Win32,144.1753172,611a665e428e9a57ba0de804,611e07ecdcc96256ae8d5b80,611e77d6cdb681c8c670b052,0.4174,
,,,,space,,0,23,23,332,1,U, , , , ,space,2000,2,,001,2021-08-19_16h26.37.253,natb3,2021.2.3,Win32,144.1753172,611a665e428e9a57ba0de804,611e07ecdcc96256ae8d5b80,611e77d6cdb681c8c670b052,0.7123,
,,,,space,,0,24,24,246,1,L, , , , ,space,2500,2.5,,001,2021-08-19_16h26.37.253,natb3,2021.2.3,Win32,144.1753172,611a665e428e9a57ba0de804,611e07ecdcc96256ae8d5b80,611e77d6cdb681c8c670b052,0.474,
,,,,space,,0,25,25,71,1,R, , , , ,space,2500,2.5,,001,2021-08-19_16h26.37.253,natb3,2021.2.3,Win32,144.1753172,611a665e428e9a57ba0de804,611e07ecdcc96256ae8d5b80,611e77d6cdb681c8c670b052,0.4656,
,,,,,,0,26,26,287,1,X, ,2, ,9,,2000,2,,001,2021-08-19_16h26.37.253,natb3,2021.2.3,Win32,144.1753172,611a665e428e9a57ba0de804,611e07ecdcc96256ae8d5b80,611e77d6cdb681c8c670b052,,
,,,,space,,0,27,27,214,1,W, , , , ,space,2000,2,,001,2021-08-19_16h26.37.253,natb3,2021.2.3,Win32,144.1753172,611a665e428e9a57ba0de804,611e07ecdcc96256ae8d5b80,611e77d6cdb681c8c670b052,0.4804,
,,,,space,,0,28,28,83,1,D, , , , ,space,2000,2,,001,2021-08-19_16h26.37.253,natb3,2021.2.3,Win32,144.1753172,611a665e428e9a57ba0de804,611e07ecdcc96256ae8d5b80,611e77d6cdb681c8c670b052,0.582,
,,,,space,,0,29,29,0,1,Q, , , , ,space,1500,1.5,,001,2021-08-19_16h26.37.253,natb3,2021.2.3,Win32,144.1753172,611a665e428e9a57ba0de804,611e07ecdcc96256ae8d5b80,611e77d6cdb681c8c670b052,0.4283,
,,,,,,0,30,30,236,1,X,3, ,4,7,,2500,2.5,,001,2021-08-19_16h26.37.253,natb3,2021.2.3,Win32,144.1753172,611a665e428e9a57ba0de804,611e07ecdcc96256ae8d5b80,611e77d6cdb681c8c670b052,,
,,,,space,,0,31,31,154,1,I, , , , ,space,2500,2.5,,001,2021-08-19_16h26.37.253,natb3,2021.2.3,Win32,144.1753172,611a665e428e9a57ba0de804,611e07ecdcc96256ae8d5b80,611e77d6cdb681c8c670b052,0.6836,
,,,,,,0,32,32,248,1,X, ,1,5, ,,1500,1.5,,001,2021-08-19_16h26.37.253,natb3,2021.2.3,Win32,144.1753172,611a665e428e9a57ba0de804,611e07ecdcc96256ae8d5b80,611e77d6cdb681c8c670b052,,
,,,,space,,0,33,33,265,1,I, , , , ,space,2000,2,,001,2021-08-19_16h26.37.253,natb3,2021.2.3,Win32,144.1753172,611a665e428e9a57ba0de804,611e07ecdcc96256ae8d5b80,611e77d6cdb681c8c670b052,0.4911,
,,,,space,,0,34,34,199,1,J, , , , ,space,2500,2.5,,001,2021-08-19_16h26.37.253,natb3,2021.2.3,Win32,144.1753172,611a665e428e9a57ba0de804,611e07ecdcc96256ae8d5b80,611e77d6cdb681c8c670b052,0.629,
,,,,space,,0,35,35,163,1,G, , , , ,space,2500,2.5,,001,2021-08-19_16h26.37.253,natb3,2021.2.3,Win32,144.1753172,611a665e428e9a57ba0de804,611e07ecdcc96256ae8d5b80,611e77d6cdb681c8c670b052,0.4844,
,,,,space,,0,36,36,50,1,D, , , , ,space,1500,1.5,,001,2021-08-19_16h26.37.253,natb3,2021.2.3,Win32,144.1753172,611a665e428e9a57ba0de804,611e07ecdcc96256ae8d5b80,611e77d6cdb681c8c670b052,0.3723,
,,,,space,,0,37,37,178,1,Q, , , , ,space,1500,1.5,,001,2021-08-19_16h26.37.253,natb3,2021.2.3,Win32,144.1753172,611a665e428e9a57ba0de804,611e07ecdcc96256ae8d5b80,611e77d6cdb681c8c670b052,0.4043,
,,,,space,,0,38,38,28,1,V, , , , ,space,1500,1.5,,001,2021-08-19_16h26.37.253,natb3,2021.2.3,Win32,144.1753172,611a665e428e9a57ba0de804,611e07ecdcc96256ae8d5b80,611e77d6cdb681c8c670b052,0.4926,
,,,,space,,0,39,39,24,1,L, , , , ,space,2500,2.5,,001,2021-08-19_16h26.37.253,natb3,2021.2.3,Win32,144.1753172,611a665e428e9a57ba0de804,611e07ecdcc96256ae8d5b80,611e77d6cdb681c8c670b052,0.4406,
,,,,space,,0,40,40,300,1,O, , , , ,space,2500,2.5,,001,2021-08-19_16h26.37.253,natb3,2021.2.3,Win32,144.1753172,611a665e428e9a57ba0de804,611e07ecdcc96256ae8d5b80,611e77d6cdb681c8c670b052,0.4143,
,,,,space,,0,41,41,94,1,C, , , , ,space,2000,2,,001,2021-08-19_16h26.37.253,natb3,2021.2.3,Win32,144.1753172,611a665e428e9a57ba0de804,611e07ecdcc96256ae8d5b80,611e77d6cdb681c8c670b052,0.4733,
,,,,space,,0,42,42,68,1,W, , , , ,space,2500,2.5,,001,2021-08-19_16h26.37.253,natb3,2021.2.3,Win32,144.1753172,611a665e428e9a57ba0de804,611e07ecdcc96256ae8d5b80,611e77d6cdb681c8c670b052,0.4656,
,,,,space,,0,43,43,228,1,Y, , , , ,space,2000,2,,001,2021-08-19_16h26.37.253,natb3,2021.2.3,Win32,144.1753172,611a665e428e9a57ba0de804,611e07ecdcc96256ae8d5b80,611e77d6cdb681c8c670b052,0.3992,
,,,,space,,0,44,44,52,1,F, , , , ,space,1500,1.5,,001,2021-08-19_16h26.37.253,natb3,2021.2.3,Win32,144.1753172,611a665e428e9a57ba0de804,611e07ecdcc96256ae8d5b80,611e77d6cdb681c8c670b052,0.4435,
,,,,space,,0,45,45,156,1,P, , , , ,space,1500,1.5,,001,2021-08-19_16h26.37.253,natb3,2021.2.3,Win32,144.1753172,611a665e428e9a57ba0de804,611e07ecdcc96256ae8d5b80,611e77d6cdb681c8c670b052,0.3912,
,,,,space,,0,46,46,147,1,E, , , , ,space,2000,2,,001,2021-08-19_16h26.37.253,natb3,2021.2.3,Win32,144.1753172,611a665e428e9a57ba0de804,611e07ecdcc96256ae8d5b80,611e77d6cdb681c8c670b052,0.3821,
,,,,space,,0,47,47,224,1,W, , , , ,space,1500,1.5,,001,2021-08-19_16h26.37.253,natb3,2021.2.3,Win32,144.1753172,611a665e428e9a57ba0de804,611e07ecdcc96256ae8d5b80,611e77d6cdb681c8c670b052,0.4099,
,,,,,,0,48,48,325,1,X, , , , ,,2500,2.5,,001,2021-08-19_16h26.37.253,natb3,2021.2.3,Win32,144.1753172,611a665e428e9a57ba0de804,611e07ecdcc96256ae8d5b80,611e77d6cdb681c8c670b052,,
,,,,space,,0,49,49,155,1,O, , , , ,space,1500,1.5,,001,2021-08-19_16h26.37.253,natb3,2021.2.3,Win32,144.1753172,611a665e428e9a57ba0de804,611e07ecdcc96256ae8d5b80,611e77d6cdb681c8c670b052,0.3575,
,,,,space,,0,50,50,278,1,J, , , , ,space,2000,2,,001,2021-08-19_16h26.37.253,natb3,2021.2.3,Win32,144.1753172,611a665e428e9a57ba0de804,611e07ecdcc96256ae8d5b80,611e77d6cdb681c8c670b052,0.7227,
,,,,space,,0,51,51,222,1,O, , , , ,space,2000,2,,001,2021-08-19_16h26.37.253,natb3,2021.2.3,Win32,144.1753172,611a665e428e9a57ba0de804,611e07ecdcc96256ae8d5b80,611e77d6cdb681c8c670b052,0.3834,
,,,,,,0,52,52,89,1,X,3, , , ,,2000,2,,001,2021-08-19_16h26.37.253,natb3,2021.2.3,Win32,144.1753172,611a665e428e9a57ba0de804,611e07ecdcc96256ae8d5b80,611e77d6cdb681c8c670b052,,
,,,,space,,0,53,53,241,1,G, , , , ,space,2500,2.5,,001,2021-08-19_16h26.37.253,natb3,2021.2.3,Win32,144.1753172,611a665e428e9a57ba0de804,611e07ecdcc96256ae8d5b80,611e77d6cdb681c8c670b052,0.4076,
,,,,space,,0,54,54,13,1,A, , , , ,space,2000,2,,001,2021-08-19_16h26.37.253,natb3,2021.2.3,Win32,144.1753172,611a665e428e9a57ba0de804,611e07ecdcc96256ae8d5b80,611e77d6cdb681c8c670b052,0.4137,
,,,,space,,0,55,55,313,1,X, , , , ,,2500,2.5,,001,2021-08-19_16h26.37.253,natb3,2021.2.3,Win32,144.1753172,611a665e428e9a57ba0de804,611e07ecdcc96256ae8d5b80,611e77d6cdb681c8c670b052,0.3579,
,,,,space,,0,56,56,183,1,R, , , , ,space,1500,1.5,,001,2021-08-19_16h26.37.253,natb3,2021.2.3,Win32,144.1753172,611a665e428e9a57ba0de804,611e07ecdcc96256ae8d5b80,611e77d6cdb681c8c670b052,0.381,
,,,,space,,0,57,57,139,1,V, , , , ,space,2000,2,,001,2021-08-19_16h26.37.253,natb3,2021.2.3,Win32,144.1753172,611a665e428e9a57ba0de804,611e07ecdcc96256ae8d5b80,611e77d6cdb681c8c670b052,0.5822,
,,,,space,,0,58,58,30,1,N, , , , ,space,2500,2.5,,001,2021-08-19_16h26.37.253,natb3,2021.2.3,Win32,144.1753172,611a665e428e9a57ba0de804,611e07ecdcc96256ae8d5b80,611e77d6cdb681c8c670b052,0.5775,
,,,,space,,0,59,59,256,1,Q, , , , ,space,2000,2,,001,2021-08-19_16h26.37.253,natb3,2021.2.3,Win32,144.1753172,611a665e428e9a57ba0de804,611e07ecdcc96256ae8d5b80,611e77d6cdb681c8c670b052,0.3674,
,,,,,,0,60,60,18,1,X, ,2,5,8,,2500,2.5,,001,2021-08-19_16h26.37.253,natb3,2021.2.3,Win32,144.1753172,611a665e428e9a57ba0de804,611e07ecdcc96256ae8d5b80,611e77d6cdb681c8c670b052,,
,,,,,,0,61,61,277,1,X,8,5, ,2,,2000,2,,001,2021-08-19_16h26.37.253,natb3,2021.2.3,Win32,144.1753172,611a665e428e9a57ba0de804,611e07ecdcc96256ae8d5b80,611e77d6cdb681c8c670b052,,
,,,,space,,0,62,62,279,1,K, , , , ,space,2500,2.5,,001,2021-08-19_16h26.37.253,natb3,2021.2.3,Win32,144.1753172,611a665e428e9a57ba0de804,611e07ecdcc96256ae8d5b80,611e77d6cdb681c8c670b052,0.459,
,,,,space,,0,63,63,110,1,I, , , , ,space,1500,1.5,,001,2021-08-19_16h26.37.253,natb3,2021.2.3,Win32,144.1753172,611a665e428e9a57ba0de804,611e07ecdcc96256ae8d5b80,611e77d6cdb681c8c670b052,0.6693,
,,,,,,0,64,64,60,1,X,7,3,5, ,,1500,1.5,,001,2021-08-19_16h26.37.253,natb3,2021.2.3,Win32,144.1753172,611a665e428e9a57ba0de804,611e07ecdcc96256ae8d5b80,611e77d6cdb681c8c670b052,,
,,,,space,,0,65,65,254,1,M, , , , ,space,1500,1.5,,001,2021-08-19_16h26.37.253,natb3,2021.2.3,Win32,144.1753172,611a665e428e9a57ba0de804,611e07ecdcc96256ae8d5b80,611e77d6cdb681c8c670b052,0.5717,
,,,,space,,0,66,66,290,1,W, , , , ,space,1500,1.5,,001,2021-08-19_16h26.37.253,natb3,2021.2.3,Win32,144.1753172,611a665e428e9a57ba0de804,611e07ecdcc96256ae8d5b80,611e77d6cdb681c8c670b052,0.6093,
,,,,,,0,67,67,305,1,X, , , , ,,1500,1.5,,001,2021-08-19_16h26.37.253,natb3,2021.2.3,Win32,144.1753172,611a665e428e9a57ba0de804,611e07ecdcc96256ae8d5b80,611e77d6cdb681c8c670b052,,
,,,,,,0,68,68,97,1,B, , , , ,space,2500,2.5,,001,2021-08-19_16h26.37.253,natb3,2021.2.3,Win32,144.1753172,611a665e428e9a57ba0de804,611e07ecdcc96256ae8d5b80,611e77d6cdb681c8c670b052,,
,,,,space,,0,69,69,131,1,G, , , , ,space,1500,1.5,,001,2021-08-19_16h26.37.253,natb3,2021.2.3,Win32,144.1753172,611a665e428e9a57ba0de804,611e07ecdcc96256ae8d5b80,611e77d6cdb681c8c670b052,0.4953,
,,,,space,,0,70,70,161,1,F, , , , ,space,1500,1.5,,001,2021-08-19_16h26.37.253,natb3,2021.2.3,Win32,144.1753172,611a665e428e9a57ba0de804,611e07ecdcc96256ae8d5b80,611e77d6cdb681c8c670b052,0.5014,
,,,,space,,0,71,71,320,1,B, , , , ,space,1500,1.5,,001,2021-08-19_16h26.37.253,natb3,2021.2.3,Win32,144.1753172,611a665e428e9a57ba0de804,611e07ecdcc96256ae8d5b80,611e77d6cdb681c8c670b052,0.4875,
,,,,,,0,72,72,203,1,X, , , , ,,2500,2.5,,001,2021-08-19_16h26.37.253,natb3,2021.2.3,Win32,144.1753172,611a665e428e9a57ba0de804,611e07ecdcc96256ae8d5b80,611e77d6cdb681c8c670b052,,
,,,,,,0,73,73,31,1,X, , , , ,,1500,1.5,,001,2021-08-19_16h26.37.253,natb3,2021.2.3,Win32,144.1753172,611a665e428e9a57ba0de804,611e07ecdcc96256ae8d5b80,611e77d6cdb681c8c670b052,,
,,,,,,0,74,74,39,1,X,6,2, , ,,1500,1.5,,001,2021-08-19_16h26.37.253,natb3,2021.2.3,Win32,144.1753172,611a665e428e9a57ba0de804,611e07ecdcc96256ae8d5b80,611e77d6cdb681c8c670b052,,
,,,,space,,0,75,75,44,1,I, , , , ,space,2500,2.5,,001,2021-08-19_16h26.37.253,natb3,2021.2.3,Win32,144.1753172,611a665e428e9a57ba0de804,611e07ecdcc96256ae8d5b80,611e77d6cdb681c8c670b052,0.5814,
,,,,space,,0,76,76,90,1,K, , , , ,space,2000,2,,001,2021-08-19_16h26.37.253,natb3,2021.2.3,Win32,144.1753172,611a665e428e9a57ba0de804,611e07ecdcc96256ae8d5b80,611e77d6cdb681c8c670b052,0.52,
,,,,space,,0,77,77,134,1,J, , , , ,space,2000,2,,001,2021-08-19_16h26.37.253,natb3,2021.2.3,Win32,144.1753172,611a665e428e9a57ba0de804,611e07ecdcc96256ae8d5b80,611e77d6cdb681c8c670b052,0.5781,
,,,,,,0,78,78,46,1,X, , , , ,,2000,2,,001,2021-08-19_16h26.37.253,natb3,2021.2.3,Win32,144.1753172,611a665e428e9a57ba0de804,611e07ecdcc96256ae8d5b80,611e77d6cdb681c8c670b052,,
,,,,,,0,79,79,191,1,X,1, ,3,4,,2500,2.5,,001,2021-08-19_16h26.37.253,natb3,2021.2.3,Win32,144.1753172,611a665e428e9a57ba0de804,611e07ecdcc96256ae8d5b80,611e77d6cdb681c8c670b052,,
,,,,space,,0,80,80,170,1,Z, , , , ,space,2000,2,,001,2021-08-19_16h26.37.253,natb3,2021.2.3,Win32,144.1753172,611a665e428e9a57ba0de804,611e07ecdcc96256ae8d5b80,611e77d6cdb681c8c670b052,0.6551,
,,,,space,,0,81,81,64,1,N, , , , ,space,2000,2,,001,2021-08-19_16h26.37.253,natb3,2021.2.3,Win32,144.1753172,611a665e428e9a57ba0de804,611e07ecdcc96256ae8d5b80,611e77d6cdb681c8c670b052,0.595,
,,,,space,,0,82,82,303,1,A, , , , ,space,2000,2,,001,2021-08-19_16h26.37.253,natb3,2021.2.3,Win32,144.1753172,611a665e428e9a57ba0de804,611e07ecdcc96256ae8d5b80,611e77d6cdb681c8c670b052,0.7899,
,,,,,,0,83,83,78,1,X, , , , ,,2000,2,,001,2021-08-19_16h26.37.253,natb3,2021.2.3,Win32,144.1753172,611a665e428e9a57ba0de804,611e07ecdcc96256ae8d5b80,611e77d6cdb681c8c670b052,,
,,,,space,,0,84,84,216,1,R, , , , ,space,1500,1.5,,001,2021-08-19_16h26.37.253,natb3,2021.2.3,Win32,144.1753172,611a665e428e9a57ba0de804,611e07ecdcc96256ae8d5b80,611e77d6cdb681c8c670b052,0.8104,
,,,,space,,0,85,85,275,1,G, , , , ,space,1500,1.5,,001,2021-08-19_16h26.37.253,natb3,2021.2.3,Win32,144.1753172,611a665e428e9a57ba0de804,611e07ecdcc96256ae8d5b80,611e77d6cdb681c8c670b052,0.523,
,,,,,,0,86,86,207,1,X,9, ,2, ,,2500,2.5,,001,2021-08-19_16h26.37.253,natb3,2021.2.3,Win32,144.1753172,611a665e428e9a57ba0de804,611e07ecdcc96256ae8d5b80,611e77d6cdb681c8c670b052,,
,,,,space,,0,87,87,5,1,T, , , , ,space,2000,2,,001,2021-08-19_16h26.37.253,natb3,2021.2.3,Win32,144.1753172,611a665e428e9a57ba0de804,611e07ecdcc96256ae8d5b80,611e77d6cdb681c8c670b052,0.5773,
,,,,,,0,88,88,33,1,X, , , , ,,1500,1.5,,001,2021-08-19_16h26.37.253,natb3,2021.2.3,Win32,144.1753172,611a665e428e9a57ba0de804,611e07ecdcc96256ae8d5b80,611e77d6cdb681c8c670b052,,
,,,,space,,0,89,89,11,1,P, , , , ,space,2500,2.5,,001,2021-08-19_16h26.37.253,natb3,2021.2.3,Win32,144.1753172,611a665e428e9a57ba0de804,611e07ecdcc96256ae8d5b80,611e77d6cdb681c8c670b052,0.5905,
,,,,space,,0,90,90,137,1,C, , , , ,space,2500,2.5,,001,2021-08-19_16h26.37.253,natb3,2021.2.3,Win32,144.1753172,611a665e428e9a57ba0de804,611e07ecdcc96256ae8d5b80,611e77d6cdb681c8c670b052,0.5686,
,,,,space,,0,91,91,87,1,H, , , , ,space,1500,1.5,,001,2021-08-19_16h26.37.253,natb3,2021.2.3,Win32,144.1753172,611a665e428e9a57ba0de804,611e07ecdcc96256ae8d5b80,611e77d6cdb681c8c670b052,0.5532,
,,,,space,,0,92,92,115,1,R, , , , ,space,1500,1.5,,001,2021-08-19_16h26.37.253,natb3,2021.2.3,Win32,144.1753172,611a665e428e9a57ba0de804,611e07ecdcc96256ae8d5b80,611e77d6cdb681c8c670b052,0.6407,
,,,,,,0,93,93,202,1,L, , , , ,space,2500,2.5,,001,2021-08-19_16h26.37.253,natb3,2021.2.3,Win32,144.1753172,611a665e428e9a57ba0de804,611e07ecdcc96256ae8d5b80,611e77d6cdb681c8c670b052,,
,,,,,,0,94,94,255,1,X, , , , ,,1500,1.5,,001,2021-08-19_16h26.37.253,natb3,2021.2.3,Win32,144.1753172,611a665e428e9a57ba0de804,611e07ecdcc96256ae8d5b80,611e77d6cdb681c8c670b052,,
,,,,space,,0,95,95,53,1,G, , , , ,space,2500,2.5,,001,2021-08-19_16h26.37.253,natb3,2021.2.3,Win32,144.1753172,611a665e428e9a57ba0de804,611e07ecdcc96256ae8d5b80,611e77d6cdb681c8c670b052,0.5171,
,,,,space,,0,96,96,72,1,T, , , , ,space,1500,1.5,,001,2021-08-19_16h26.37.253,natb3,2021.2.3,Win32,144.1753172,611a665e428e9a57ba0de804,611e07ecdcc96256ae8d5b80,611e77d6cdb681c8c670b052,0.5913,
,,,,space,,0,97,97,121,1,I, , , , ,space,2000,2,,001,2021-08-19_16h26.37.253,natb3,2021.2.3,Win32,144.1753172,611a665e428e9a57ba0de804,611e07ecdcc96256ae8d5b80,611e77d6cdb681c8c670b052,0.5288,
,,,,,,0,98,98,98,1,X, , , , ,,2500,2.5,,001,2021-08-19_16h26.37.253,natb3,2021.2.3,Win32,144.1753172,611a665e428e9a57ba0de804,611e07ecdcc96256ae8d5b80,611e77d6cdb681c8c670b052,,
,,,,space,,0,99,99,114,1,E, , , , ,space,2000,2,,001,2021-08-19_16h26.37.253,natb3,2021.2.3,Win32,144.1753172,611a665e428e9a57ba0de804,611e07ecdcc96256ae8d5b80,611e77d6cdb681c8c670b052,0.501,
,,,,space,,0,100,100,194,1,D, , , , ,space,2000,2,,001,2021-08-19_16h26.37.253,natb3,2021.2.3,Win32,144.1753172,611a665e428e9a57ba0de804,611e07ecdcc96256ae8d5b80,611e77d6cdb681c8c670b052,0.5713,
,,,,space,,0,101,101,316,1,Z, , , , ,space,1500,1.5,,001,2021-08-19_16h26.37.253,natb3,2021.2.3,Win32,144.1753172,611a665e428e9a57ba0de804,611e07ecdcc96256ae8d5b80,611e77d6cdb681c8c670b052,0.6159,
,,,,space,,0,102,102,181,1,E, , , , ,space,1500,1.5,,001,2021-08-19_16h26.37.253,natb3,2021.2.3,Win32,144.1753172,611a665e428e9a57ba0de804,611e07ecdcc96256ae8d5b80,611e77d6cdb681c8c670b052,0.823,
,,,,,,0,103,103,299,1,X, , , , ,,2500,2.5,,001,2021-08-19_16h26.37.253,natb3,2021.2.3,Win32,144.1753172,611a665e428e9a57ba0de804,611e07ecdcc96256ae8d5b80,611e77d6cdb681c8c670b052,,
,,,,space,,0,104,104,257,1,W, , , , ,space,2000,2,,001,2021-08-19_16h26.37.253,natb3,2021.2.3,Win32,144.1753172,611a665e428e9a57ba0de804,611e07ecdcc96256ae8d5b80,611e77d6cdb681c8c670b052,0.6167,
,,,,,,0,105,105,329,1,X,3,4, ,2,,2500,2.5,,001,2021-08-19_16h26.37.253,natb3,2021.2.3,Win32,144.1753172,611a665e428e9a57ba0de804,611e07ecdcc96256ae8d5b80,611e77d6cdb681c8c670b052,,
,,,,space,,0,106,106,210,1,M, , , , ,space,1500,1.5,,001,2021-08-19_16h26.37.253,natb3,2021.2.3,Win32,144.1753172,611a665e428e9a57ba0de804,611e07ecdcc96256ae8d5b80,611e77d6cdb681c8c670b052,0.4354,
,,,,space,,0,107,107,333,1,I, , , , ,space,1500,1.5,,001,2021-08-19_16h26.37.253,natb3,2021.2.3,Win32,144.1753172,611a665e428e9a57ba0de804,611e07ecdcc96256ae8d5b80,611e77d6cdb681c8c670b052,0.5911,
,,,,space,,0,108,108,304,1,S, , , , ,space,2000,2,,001,2021-08-19_16h26.37.253,natb3,2021.2.3,Win32,144.1753172,611a665e428e9a57ba0de804,611e07ecdcc96256ae8d5b80,611e77d6cdb681c8c670b052,0.8497,
,,,,,,0,109,109,282,1,X, , , , ,,2500,2.5,,001,2021-08-19_16h26.37.253,natb3,2021.2.3,Win32,144.1753172,611a665e428e9a57ba0de804,611e07ecdcc96256ae8d5b80,611e77d6cdb681c8c670b052,,
,,,,space,,0,110,110,45,1,O, , , , ,space,2000,2,,001,2021-08-19_16h26.37.253,natb3,2021.2.3,Win32,144.1753172,611a665e428e9a57ba0de804,611e07ecdcc96256ae8d5b80,611e77d6cdb681c8c670b052,0.4487,
,,,,space,,0,111,111,142,1,N, , , , ,space,2500,2.5,,001,2021-08-19_16h26.37.253,natb3,2021.2.3,Win32,144.1753172,611a665e428e9a57ba0de804,611e07ecdcc96256ae8d5b80,611e77d6cdb681c8c670b052,0.4502,
,,,,space,,0,112,112,309,1,H, , , , ,space,2500,2.5,,001,2021-08-19_16h26.37.253,natb3,2021.2.3,Win32,144.1753172,611a665e428e9a57ba0de804,611e07ecdcc96256ae8d5b80,611e77d6cdb681c8c670b052,0.4163,
,,,,,,0,113,113,187,1,X, ,3,7,4,,1500,1.5,,001,2021-08-19_16h26.37.253,natb3,2021.2.3,Win32,144.1753172,611a665e428e9a57ba0de804,611e07ecdcc96256ae8d5b80,611e77d6cdb681c8c670b052,,
,,,,,,0,114,114,116,1,X, , , , ,,2000,2,,001,2021-08-19_16h26.37.253,natb3,2021.2.3,Win32,144.1753172,611a665e428e9a57ba0de804,611e07ecdcc96256ae8d5b80,611e77d6cdb681c8c670b052,,
,,,,space,,0,115,115,244,1,J, , , , ,space,1500,1.5,,001,2021-08-19_16h26.37.253,natb3,2021.2.3,Win32,144.1753172,611a665e428e9a57ba0de804,611e07ecdcc96256ae8d5b80,611e77d6cdb681c8c670b052,0.5034,
,,,,,,0,116,116,213,1,X, , , , ,,2500,2.5,,001,2021-08-19_16h26.37.253,natb3,2021.2.3,Win32,144.1753172,611a665e428e9a57ba0de804,611e07ecdcc96256ae8d5b80,611e77d6cdb681c8c670b052,,
,,,,,,0,117,117,66,1,X, ,4,7, ,,2000,2,,001,2021-08-19_16h26.37.253,natb3,2021.2.3,Win32,144.1753172,611a665e428e9a57ba0de804,611e07ecdcc96256ae8d5b80,611e77d6cdb681c8c670b052,,
,,,,space,,0,118,118,220,1,U, , , , ,space,2500,2.5,,001,2021-08-19_16h26.37.253,natb3,2021.2.3,Win32,144.1753172,611a665e428e9a57ba0de804,611e07ecdcc96256ae8d5b80,611e77d6cdb681c8c670b052,0.7305,
,,,,,,0,119,119,239,1,X, , , , ,,2000,2,,001,2021-08-19_16h26.37.253,natb3,2021.2.3,Win32,144.1753172,611a665e428e9a57ba0de804,611e07ecdcc96256ae8d5b80,611e77d6cdb681c8c670b052,,
,,,,,,0,120,120,43,1,X, ,6, ,2,,2500,2.5,,001,2021-08-19_16h26.37.253,natb3,2021.2.3,Win32,144.1753172,611a665e428e9a57ba0de804,611e07ecdcc96256ae8d5b80,611e77d6cdb681c8c670b052,,
,,,,space,,0,121,121,100,1,M, , , , ,space,2000,2,,001,2021-08-19_16h26.37.253,natb3,2021.2.3,Win32,144.1753172,611a665e428e9a57ba0de804,611e07ecdcc96256ae8d5b80,611e77d6cdb681c8c670b052,0.5164,
,,,,,,0,122,122,153,1,X,4,7, ,6,,2000,2,,001,2021-08-19_16h26.37.253,natb3,2021.2.3,Win32,144.1753172,611a665e428e9a57ba0de804,611e07ecdcc96256ae8d5b80,611e77d6cdb681c8c670b052,,
,,,,space,,0,123,123,136,1,Z, , , , ,space,2500,2.5,,001,2021-08-19_16h26.37.253,natb3,2021.2.3,Win32,144.1753172,611a665e428e9a57ba0de804,611e07ecdcc96256ae8d5b80,611e77d6cdb681c8c670b052,0.5444,
,,,,space,,0,124,124,249,1,C, , , , ,space,2000,2,,001,2021-08-19_16h26.37.253,natb3,2021.2.3,Win32,144.1753172,611a665e428e9a57ba0de804,611e07ecdcc96256ae8d5b80,611e77d6cdb681c8c670b052,0.4933,
,,,,space,,0,125,125,196,1,F, , , , ,space,1500,1.5,,001,2021-08-19_16h26.37.253,natb3,2021.2.3,Win32,144.1753172,611a665e428e9a57ba0de804,611e07ecdcc96256ae8d5b80,611e77d6cdb681c8c670b052,0.5402,
,,,,space,,0,126,126,47,1,P, , , , ,space,2000,2,,001,2021-08-19_16h26.37.253,natb3,2021.2.3,Win32,144.1753172,611a665e428e9a57ba0de804,611e07ecdcc96256ae8d5b80,611e77d6cdb681c8c670b052,0.8066,
,,,,space,,0,127,127,36,1,W, , , , ,space,2000,2,,001,2021-08-19_16h26.37.253,natb3,2021.2.3,Win32,144.1753172,611a665e428e9a57ba0de804,611e07ecdcc96256ae8d5b80,611e77d6cdb681c8c670b052,0.4987,
,,,,space,,0,128,128,276,1,H, , , , ,space,2000,2,,001,2021-08-19_16h26.37.253,natb3,2021.2.3,Win32,144.1753172,611a665e428e9a57ba0de804,611e07ecdcc96256ae8d5b80,611e77d6cdb681c8c670b052,0.527,
,,,,space,,0,129,129,29,1,B, , , , ,space,1500,1.5,,001,2021-08-19_16h26.37.253,natb3,2021.2.3,Win32,144.1753172,611a665e428e9a57ba0de804,611e07ecdcc96256ae8d5b80,611e77d6cdb681c8c670b052,0.4308,
,,,,space,,0,130,130,99,1,N, , , , ,space,2500,2.5,,001,2021-08-19_16h26.37.253,natb3,2021.2.3,Win32,144.1753172,611a665e428e9a57ba0de804,611e07ecdcc96256ae8d5b80,611e77d6cdb681c8c670b052,0.4686,
,,,,,,0,131,131,102,1,X, ,6, , ,,1500,1.5,,001,2021-08-19_16h26.37.253,natb3,2021.2.3,Win32,144.1753172,611a665e428e9a57ba0de804,611e07ecdcc96256ae8d5b80,611e77d6cdb681c8c670b052,,
,,,,space,,0,132,132,250,1,V, , , , ,space,2000,2,,001,2021-08-19_16h26.37.253,natb3,2021.2.3,Win32,144.1753172,611a665e428e9a57ba0de804,611e07ecdcc96256ae8d5b80,611e77d6cdb681c8c670b052,0.4106,
,,,,space,,0,133,133,212,1,Q, , , , ,space,2500,2.5,,001,2021-08-19_16h26.37.253,natb3,2021.2.3,Win32,144.1753172,611a665e428e9a57ba0de804,611e07ecdcc96256ae8d5b80,611e77d6cdb681c8c670b052,0.3633,
,,,,space,,0,134,134,208,1,B, , , , ,space,1500,1.5,,001,2021-08-19_16h26.37.253,natb3,2021.2.3,Win32,144.1753172,611a665e428e9a57ba0de804,611e07ecdcc96256ae8d5b80,611e77d6cdb681c8c670b052,0.3717,
,,,,space,,0,135,135,69,1,X, , , , ,,1500,1.5,,001,2021-08-19_16h26.37.253,natb3,2021.2.3,Win32,144.1753172,611a665e428e9a57ba0de804,611e07ecdcc96256ae8d5b80,611e77d6cdb681c8c670b052,0.3552,
,,,,,,0,136,136,118,1,X, , , , ,,2000,2,,001,2021-08-19_16h26.37.253,natb3,2021.2.3,Win32,144.1753172,611a665e428e9a57ba0de804,611e07ecdcc96256ae8d5b80,611e77d6cdb681c8c670b052,,
,,,,space,,0,137,137,235,1,A, , , , ,space,1500,1.5,,001,2021-08-19_16h26.37.253,natb3,2021.2.3,Win32,144.1753172,611a665e428e9a57ba0de804,611e07ecdcc96256ae8d5b80,611e77d6cdb681c8c670b052,0.5537,
,,,,space,,0,138,138,238,1,D, , , , ,space,1500,1.5,,001,2021-08-19_16h26.37.253,natb3,2021.2.3,Win32,144.1753172,611a665e428e9a57ba0de804,611e07ecdcc96256ae8d5b80,611e77d6cdb681c8c670b052,0.5522,
,,,,,,0,139,139,315,1,X, , , , ,,2500,2.5,,001,2021-08-19_16h26.37.253,natb3,2021.2.3,Win32,144.1753172,611a665e428e9a57ba0de804,611e07ecdcc96256ae8d5b80,611e77d6cdb681c8c670b052,,
,,,,space,,0,140,140,297,1,U, , , , ,space,2000,2,,001,2021-08-19_16h26.37.253,natb3,2021.2.3,Win32,144.1753172,611a665e428e9a57ba0de804,611e07ecdcc96256ae8d5b80,611e77d6cdb681c8c670b052,0.6184,
,,,,space,,0,141,141,242,1,H, , , , ,space,2500,2.5,,001,2021-08-19_16h26.37.253,natb3,2021.2.3,Win32,144.1753172,611a665e428e9a57ba0de804,611e07ecdcc96256ae8d5b80,611e77d6cdb681c8c670b052,0.6726,
,,,,space,,0,142,142,55,1,H, , , , ,space,2500,2.5,,001,2021-08-19_16h26.37.253,natb3,2021.2.3,Win32,144.1753172,611a665e428e9a57ba0de804,611e07ecdcc96256ae8d5b80,611e77d6cdb681c8c670b052,0.8115,
,,,,space,,0,143,143,267,1,P, , , , ,space,2000,2,,001,2021-08-19_16h26.37.253,natb3,2021.2.3,Win32,144.1753172,611a665e428e9a57ba0de804,611e07ecdcc96256ae8d5b80,611e77d6cdb681c8c670b052,0.7923,
,,,,,,0,144,144,268,1,X,6, ,3, ,,2500,2.5,,001,2021-08-19_16h26.37.253,natb3,2021.2.3,Win32,144.1753172,611a665e428e9a57ba0de804,611e07ecdcc96256ae8d5b80,611e77d6cdb681c8c670b052,,
,,,,,,0,145,145,85,1,F, , , , ,space,2500,2.5,,001,2021-08-19_16h26.37.253,natb3,2021.2.3,Win32,144.1753172,611a665e428e9a57ba0de804,611e07ecdcc96256ae8d5b80,611e77d6cdb681c8c670b052,,
,,,,space,,0,146,146,38,1,R, , , , ,space,2500,2.5,,001,2021-08-19_16h26.37.253,natb3,2021.2.3,Win32,144.1753172,611a665e428e9a57ba0de804,611e07ecdcc96256ae8d5b80,611e77d6cdb681c8c670b052,0.7562,
,,,,space,,0,147,147,323,1,M, , , , ,space,2500,2.5,,001,2021-08-19_16h26.37.253,natb3,2021.2.3,Win32,144.1753172,611a665e428e9a57ba0de804,611e07ecdcc96256ae8d5b80,611e77d6cdb681c8c670b052,0.703,
,,,,space,,0,148,148,57,1,K, , , , ,space,2500,2.5,,001,2021-08-19_16h26.37.253,natb3,2021.2.3,Win32,144.1753172,611a665e428e9a57ba0de804,611e07ecdcc96256ae8d5b80,611e77d6cdb681c8c670b052,0.6257,
,,,,,,0,149,149,263,1,X,4, ,6, ,,1500,1.5,,001,2021-08-19_16h26.37.253,natb3,2021.2.3,Win32,144.1753172,611a665e428e9a57ba0de804,611e07ecdcc96256ae8d5b80,611e77d6cdb681c8c670b052,,
,,,,space,,0,150,150,261,1,T, , , , ,space,2000,2,,001,2021-08-19_16h26.37.253,natb3,2021.2.3,Win32,144.1753172,611a665e428e9a57ba0de804,611e07ecdcc96256ae8d5b80,611e77d6cdb681c8c670b052,0.4244,
,,,,space,,0,151,151,319,1,V, , , , ,space,2000,2,,001,2021-08-19_16h26.37.253,natb3,2021.2.3,Win32,144.1753172,611a665e428e9a57ba0de804,611e07ecdcc96256ae8d5b80,611e77d6cdb681c8c670b052,0.4378,
,,,,space,,0,152,152,260,1,R, , , , ,space,2000,2,,001,2021-08-19_16h26.37.253,natb3,2021.2.3,Win32,144.1753172,611a665e428e9a57ba0de804,611e07ecdcc96256ae8d5b80,611e77d6cdb681c8c670b052,0.3248,
,,,,space,,0,153,153,120,1,U, , , , ,space,1500,1.5,,001,2021-08-19_16h26.37.253,natb3,2021.2.3,Win32,144.1753172,611a665e428e9a57ba0de804,611e07ecdcc96256ae8d5b80,611e77d6cdb681c8c670b052,0.6394,
,,,,space,,0,154,154,145,1,X, , , , ,,2000,2,,001,2021-08-19_16h26.37.253,natb3,2021.2.3,Win32,144.1753172,611a665e428e9a57ba0de804,611e07ecdcc96256ae8d5b80,611e77d6cdb681c8c670b052,0.4908,
,,,,space,,0,155,155,150,1,T, , , , ,space,2500,2.5,,001,2021-08-19_16h26.37.253,natb3,2021.2.3,Win32,144.1753172,611a665e428e9a57ba0de804,611e07ecdcc96256ae8d5b80,611e77d6cdb681c8c670b052,0.3907,
,,,,space,,0,156,156,234,1,P, , , , ,space,2000,2,,001,2021-08-19_16h26.37.253,natb3,2021.2.3,Win32,144.1753172,611a665e428e9a57ba0de804,611e07ecdcc96256ae8d5b80,611e77d6cdb681c8c670b052,0.2479,
,,,,space,,0,157,157,16,1,D, , , , ,space,1500,1.5,,001,2021-08-19_16h26.37.253,natb3,2021.2.3,Win32,144.1753172,611a665e428e9a57ba0de804,611e07ecdcc96256ae8d5b80,611e77d6cdb681c8c670b052,0.399,
,,,,space,,0,158,158,223,1,Q, , , , ,space,2000,2,,001,2021-08-19_16h26.37.253,natb3,2021.2.3,Win32,144.1753172,611a665e428e9a57ba0de804,611e07ecdcc96256ae8d5b80,611e77d6cdb681c8c670b052,0.3562,
,,,,space,,0,159,159,106,1,T, , , , ,space,1500,1.5,,001,2021-08-19_16h26.37.253,natb3,2021.2.3,Win32,144.1753172,611a665e428e9a57ba0de804,611e07ecdcc96256ae8d5b80,611e77d6cdb681c8c670b052,0.3641,
,,,,space,,0,160,160,34,1,Q, , , , ,space,2500,2.5,,001,2021-08-19_16h26.37.253,natb3,2021.2.3,Win32,144.1753172,611a665e428e9a57ba0de804,611e07ecdcc96256ae8d5b80,611e77d6cdb681c8c670b052,0.3853,
,,,,,,0,161,161,4,1,X, , , , ,,2000,2,,001,2021-08-19_16h26.37.253,natb3,2021.2.3,Win32,144.1753172,611a665e428e9a57ba0de804,611e07ecdcc96256ae8d5b80,611e77d6cdb681c8c670b052,,
,,,,,,0,162,162,311,1,X,1,2,7,3,,2500,2.5,,001,2021-08-19_16h26.37.253,natb3,2021.2.3,Win32,144.1753172,611a665e428e9a57ba0de804,611e07ecdcc96256ae8d5b80,611e77d6cdb681c8c670b052,,
,,,,,,0,163,163,218,1,X,1,3, ,8,,1500,1.5,,001,2021-08-19_16h26.37.253,natb3,2021.2.3,Win32,144.1753172,611a665e428e9a57ba0de804,611e07ecdcc96256ae8d5b80,611e77d6cdb681c8c670b052,,
,,,,space,,0,164,164,135,1,K, , , , ,space,1500,1.5,,001,2021-08-19_16h26.37.253,natb3,2021.2.3,Win32,144.1753172,611a665e428e9a57ba0de804,611e07ecdcc96256ae8d5b80,611e77d6cdb681c8c670b052,0.5724,
,,,,space,,0,165,165,328,1,R, , , , ,space,1500,1.5,,001,2021-08-19_16h26.37.253,natb3,2021.2.3,Win32,144.1753172,611a665e428e9a57ba0de804,611e07ecdcc96256ae8d5b80,611e77d6cdb681c8c670b052,0.4829,
,,,,space,,0,166,166,49,1,S, , , , ,space,1500,1.5,,001,2021-08-19_16h26.37.253,natb3,2021.2.3,Win32,144.1753172,611a665e428e9a57ba0de804,611e07ecdcc96256ae8d5b80,611e77d6cdb681c8c670b052,0.4179,
,,,,space,space,0,167,167,205,1,C, , , , ,space,2000,2,,001,2021-08-19_16h26.37.253,natb3,2021.2.3,Win32,144.1753172,611a665e428e9a57ba0de804,611e07ecdcc96256ae8d5b80,611e77d6cdb681c8c670b052,0.6073,33.522
,,,,space,,0,168,168,258,1,E, , , , ,space,1500,1.5,,001,2021-08-19_16h26.37.253,natb3,2021.2.3,Win32,144.1753172,611a665e428e9a57ba0de804,611e07ecdcc96256ae8d5b80,611e77d6cdb681c8c670b052,0.522,
,,,,space,,0,169,169,317,1,C, , , , ,space,2000,2,,001,2021-08-19_16h26.37.253,natb3,2021.2.3,Win32,144.1753172,611a665e428e9a57ba0de804,611e07ecdcc96256ae8d5b80,611e77d6cdb681c8c670b052,0.5611,
,,,,space,,0,170,170,9,1,I, , , , ,space,1500,1.5,,001,2021-08-19_16h26.37.253,natb3,2021.2.3,Win32,144.1753172,611a665e428e9a57ba0de804,611e07ecdcc96256ae8d5b80,611e77d6cdb681c8c670b052,0.9169,
,,,,space,,0,171,171,308,1,G, , , , ,space,1500,1.5,,001,2021-08-19_16h26.37.253,natb3,2021.2.3,Win32,144.1753172,611a665e428e9a57ba0de804,611e07ecdcc96256ae8d5b80,611e77d6cdb681c8c670b052,0.5481,
,,,,space,,0,172,172,86,1,G, , , , ,space,2000,2,,001,2021-08-19_16h26.37.253,natb3,2021.2.3,Win32,144.1753172,611a665e428e9a57ba0de804,611e07ecdcc96256ae8d5b80,611e77d6cdb681c8c670b052,0.4741,
,,,,,,0,173,173,318,1,X, , , , ,,1500,1.5,,001,2021-08-19_16h26.37.253,natb3,2021.2.3,Win32,144.1753172,611a665e428e9a57ba0de804,611e07ecdcc96256ae8d5b80,611e77d6cdb681c8c670b052,,
,,,,space,,0,174,174,296,1,Y, , , , ,space,2500,2.5,,001,2021-08-19_16h26.37.253,natb3,2021.2.3,Win32,144.1753172,611a665e428e9a57ba0de804,611e07ecdcc96256ae8d5b80,611e77d6cdb681c8c670b052,0.5954,
,,,,,,0,175,175,148,1,X, , , , ,,2000,2,,001,2021-08-19_16h26.37.253,natb3,2021.2.3,Win32,144.1753172,611a665e428e9a57ba0de804,611e07ecdcc96256ae8d5b80,611e77d6cdb681c8c670b052,,
,,,,space,,0,176,176,62,1,V, , , , ,space,1500,1.5,,001,2021-08-19_16h26.37.253,natb3,2021.2.3,Win32,144.1753172,611a665e428e9a57ba0de804,611e07ecdcc96256ae8d5b80,611e77d6cdb681c8c670b052,0.451,
,,,,space,,0,177,177,160,1,D, , , , ,space,1500,1.5,,001,2021-08-19_16h26.37.253,natb3,2021.2.3,Win32,144.1753172,611a665e428e9a57ba0de804,611e07ecdcc96256ae8d5b80,611e77d6cdb681c8c670b052,0.4618,
,,,,space,,0,178,178,288,1,M, , , , ,space,1500,1.5,,001,2021-08-19_16h26.37.253,natb3,2021.2.3,Win32,144.1753172,611a665e428e9a57ba0de804,611e07ecdcc96256ae8d5b80,611e77d6cdb681c8c670b052,0.4075,
,,,,space,,0,179,179,206,1,V, , , , ,space,2000,2,,001,2021-08-19_16h26.37.253,natb3,2021.2.3,Win32,144.1753172,611a665e428e9a57ba0de804,611e07ecdcc96256ae8d5b80,611e77d6cdb681c8c670b052,0.5049,
,,,,space,,0,180,180,330,1,T, , , , ,space,2500,2.5,,001,2021-08-19_16h26.37.253,natb3,2021.2.3,Win32,144.1753172,611a665e428e9a57ba0de804,611e07ecdcc96256ae8d5b80,611e77d6cdb681c8c670b052,0.602,
,,,,space,,0,181,181,331,1,Y, , , , ,space,2500,2.5,,001,2021-08-19_16h26.37.253,natb3,2021.2.3,Win32,144.1753172,611a665e428e9a57ba0de804,611e07ecdcc96256ae8d5b80,611e77d6cdb681c8c670b052,0.5237,
,,,,space,,0,182,182,25,1,Z, , , , ,space,2500,2.5,,001,2021-08-19_16h26.37.253,natb3,2021.2.3,Win32,144.1753172,611a665e428e9a57ba0de804,611e07ecdcc96256ae8d5b80,611e77d6cdb681c8c670b052,0.3131,
,,,,space,,0,183,183,128,1,D, , , , ,space,2500,2.5,,001,2021-08-19_16h26.37.253,natb3,2021.2.3,Win32,144.1753172,611a665e428e9a57ba0de804,611e07ecdcc96256ae8d5b80,611e77d6cdb681c8c670b052,0.4243,
,,,,space,,0,184,184,58,1,L, , , , ,space,2000,2,,001,2021-08-19_16h26.37.253,natb3,2021.2.3,Win32,144.1753172,611a665e428e9a57ba0de804,611e07ecdcc96256ae8d5b80,611e77d6cdb681c8c670b052,0.7532,
,,,,,,0,185,185,229,1,X,8, ,2,6,,2500,2.5,,001,2021-08-19_16h26.37.253,natb3,2021.2.3,Win32,144.1753172,611a665e428e9a57ba0de804,611e07ecdcc96256ae8d5b80,611e77d6cdb681c8c670b052,,
,,,,space,,0,186,186,119,1,Y, , , , ,space,2500,2.5,,001,2021-08-19_16h26.37.253,natb3,2021.2.3,Win32,144.1753172,611a665e428e9a57ba0de804,611e07ecdcc96256ae8d5b80,611e77d6cdb681c8c670b052,0.4712,
,,,,space,,0,187,187,108,1,Y, , , , ,space,2500,2.5,,001,2021-08-19_16h26.37.253,natb3,2021.2.3,Win32,144.1753172,611a665e428e9a57ba0de804,611e07ecdcc96256ae8d5b80,611e77d6cdb681c8c670b052,0.3457,
,,,,,,0,188,188,200,1,X,7, ,5,3,,1500,1.5,,001,2021-08-19_16h26.37.253,natb3,2021.2.3,Win32,144.1753172,611a665e428e9a57ba0de804,611e07ecdcc96256ae8d5b80,611e77d6cdb681c8c670b052,,
,,,,space,,0,189,189,123,1,O, , , , ,space,1500,1.5,,001,2021-08-19_16h26.37.253,natb3,2021.2.3,Win32,144.1753172,611a665e428e9a57ba0de804,611e07ecdcc96256ae8d5b80,611e77d6cdb681c8c670b052,0.8266,
,,,,space,,0,190,190,10,1,O, , , , ,space,2000,2,,001,2021-08-19_16h26.37.253,natb3,2021.2.3,Win32,144.1753172,611a665e428e9a57ba0de804,611e07ecdcc96256ae8d5b80,611e77d6cdb681c8c670b052,0.4108,
,,,,space,,0,191,191,306,1,D, , , , ,space,2000,2,,001,2021-08-19_16h26.37.253,natb3,2021.2.3,Win32,144.1753172,611a665e428e9a57ba0de804,611e07ecdcc96256ae8d5b80,611e77d6cdb681c8c670b052,0.4189,
,,,,space,,0,192,192,75,1,U, , , , ,space,1500,1.5,,001,2021-08-19_16h26.37.253,natb3,2021.2.3,Win32,144.1753172,611a665e428e9a57ba0de804,611e07ecdcc96256ae8d5b80,611e77d6cdb681c8c670b052,0.3643,
,,,,space,,0,193,193,292,1,E, , , , ,space,2000,2,,001,2021-08-19_16h26.37.253,natb3,2021.2.3,Win32,144.1753172,611a665e428e9a57ba0de804,611e07ecdcc96256ae8d5b80,611e77d6cdb681c8c670b052,0.369,
,,,,space,,0,194,194,140,1,B, , , , ,space,2500,2.5,,001,2021-08-19_16h26.37.253,natb3,2021.2.3,Win32,144.1753172,611a665e428e9a57ba0de804,611e07ecdcc96256ae8d5b80,611e77d6cdb681c8c670b052,0.3341,
,,,,space,,0,195,195,127,1,S, , , , ,space,2500,2.5,,001,2021-08-19_16h26.37.253,natb3,2021.2.3,Win32,144.1753172,611a665e428e9a57ba0de804,611e07ecdcc96256ae8d5b80,611e77d6cdb681c8c670b052,0.273,
,,,,space,,0,196,196,21,1,J, , , , ,space,1500,1.5,,001,2021-08-19_16h26.37.253,natb3,2021.2.3,Win32,144.1753172,611a665e428e9a57ba0de804,611e07ecdcc96256ae8d5b80,611e77d6cdb681c8c670b052,0.4042,
,,,,space,,0,197,197,117,1,T, , , , ,space,2500,2.5,,001,2021-08-19_16h26.37.253,natb3,2021.2.3,Win32,144.1753172,611a665e428e9a57ba0de804,611e07ecdcc96256ae8d5b80,611e77d6cdb681c8c670b052,0.314,
,,,,,,0,198,198,122,1,X,1, , ,8,,1500,1.5,,001,2021-08-19_16h26.37.253,natb3,2021.2.3,Win32,144.1753172,611a665e428e9a57ba0de804,611e07ecdcc96256ae8d5b80,611e77d6cdb681c8c670b052,,
,,,,space,,0,199,199,197,1,G, , , , ,space,2500,2.5,,001,2021-08-19_16h26.37.253,natb3,2021.2.3,Win32,144.1753172,611a665e428e9a57ba0de804,611e07ecdcc96256ae8d5b80,611e77d6cdb681c8c670b052,0.5478,
,,,,space,,0,200,200,230,1,U, , , , ,space,1500,1.5,,001,2021-08-19_16h26.37.253,natb3,2021.2.3,Win32,144.1753172,611a665e428e9a57ba0de804,611e07ecdcc96256ae8d5b80,611e77d6cdb681c8c670b052,0.4517,
,,,,,,0,201,201,84,1,X, , , , ,,2000,2,,001,2021-08-19_16h26.37.253,natb3,2021.2.3,Win32,144.1753172,611a665e428e9a57ba0de804,611e07ecdcc96256ae8d5b80,611e77d6cdb681c8c670b052,,
,,,,,,0,202,202,195,1,X, , , , ,,1500,1.5,,001,2021-08-19_16h26.37.253,natb3,2021.2.3,Win32,144.1753172,611a665e428e9a57ba0de804,611e07ecdcc96256ae8d5b80,611e77d6cdb681c8c670b052,,
,,,,space,,0,203,203,227,1,T, , , , ,space,1500,1.5,,001,2021-08-19_16h26.37.253,natb3,2021.2.3,Win32,144.1753172,611a665e428e9a57ba0de804,611e07ecdcc96256ae8d5b80,611e77d6cdb681c8c670b052,0.3142,
,,,,space,,0,204,204,217,1,T, , , , ,space,2500,2.5,,001,2021-08-19_16h26.37.253,natb3,2021.2.3,Win32,144.1753172,611a665e428e9a57ba0de804,611e07ecdcc96256ae8d5b80,611e77d6cdb681c8c670b052,0.5173,
,,,,space,,0,205,205,95,1,V, , , , ,space,1500,1.5,,001,2021-08-19_16h26.37.253,natb3,2021.2.3,Win32,144.1753172,611a665e428e9a57ba0de804,611e07ecdcc96256ae8d5b80,611e77d6cdb681c8c670b052,0.5758,
,,,,,,0,206,206,27,1,X,5, ,1,3,,1500,1.5,,001,2021-08-19_16h26.37.253,natb3,2021.2.3,Win32,144.1753172,611a665e428e9a57ba0de804,611e07ecdcc96256ae8d5b80,611e77d6cdb681c8c670b052,,
,,,,space,,0,207,207,113,1,W, , , , ,space,2500,2.5,,001,2021-08-19_16h26.37.253,natb3,2021.2.3,Win32,144.1753172,611a665e428e9a57ba0de804,611e07ecdcc96256ae8d5b80,611e77d6cdb681c8c670b052,0.4158,
,,,,space,,0,208,208,104,1,E, , , , ,space,2000,2,,001,2021-08-19_16h26.37.253,natb3,2021.2.3,Win32,144.1753172,611a665e428e9a57ba0de804,611e07ecdcc96256ae8d5b80,611e77d6cdb681c8c670b052,0.6108,
,,,,space,,0,209,209,17,1,F, , , , ,space,2500,2.5,,001,2021-08-19_16h26.37.253,natb3,2021.2.3,Win32,144.1753172,611a665e428e9a57ba0de804,611e07ecdcc96256ae8d5b80,611e77d6cdb681c8c670b052,0.4327,
,,,,space,,0,210,210,204,1,Z, , , , ,space,2000,2,,001,2021-08-19_16h26.37.253,natb3,2021.2.3,Win32,144.1753172,611a665e428e9a57ba0de804,611e07ecdcc96256ae8d5b80,611e77d6cdb681c8c670b052,0.6396,
,,,,space,,0,211,211,240,1,F, , , , ,space,2500,2.5,,001,2021-08-19_16h26.37.253,natb3,2021.2.3,Win32,144.1753172,611a665e428e9a57ba0de804,611e07ecdcc96256ae8d5b80,611e77d6cdb681c8c670b052,0.4196,
,,,,space,,0,212,212,215,1,E, , , , ,space,2500,2.5,,001,2021-08-19_16h26.37.253,natb3,2021.2.3,Win32,144.1753172,611a665e428e9a57ba0de804,611e07ecdcc96256ae8d5b80,611e77d6cdb681c8c670b052,0.6079,
,,,,,,0,213,213,74,1,X, ,4,3,2,,1500,1.5,,001,2021-08-19_16h26.37.253,natb3,2021.2.3,Win32,144.1753172,611a665e428e9a57ba0de804,611e07ecdcc96256ae8d5b80,611e77d6cdb681c8c670b052,,
,,,,space,,0,214,214,314,1,L, , , , ,space,1500,1.5,,001,2021-08-19_16h26.37.253,natb3,2021.2.3,Win32,144.1753172,611a665e428e9a57ba0de804,611e07ecdcc96256ae8d5b80,611e77d6cdb681c8c670b052,0.6815,
,,,,space,,0,215,215,324,1,Q, , , , ,space,2000,2,,001,2021-08-19_16h26.37.253,natb3,2021.2.3,Win32,144.1753172,611a665e428e9a57ba0de804,611e07ecdcc96256ae8d5b80,611e77d6cdb681c8c670b052,0.6454,
,,,,,,0,216,216,295,1,X,8,7,5, ,,2500,2.5,,001,2021-08-19_16h26.37.253,natb3,2021.2.3,Win32,144.1753172,611a665e428e9a57ba0de804,611e07ecdcc96256ae8d5b80,611e77d6cdb681c8c670b052,,
,,,,space,,0,217,217,189,1,O, , , , ,space,1500,1.5,,001,2021-08-19_16h26.37.253,natb3,2021.2.3,Win32,144.1753172,611a665e428e9a57ba0de804,611e07ecdcc96256ae8d5b80,611e77d6cdb681c8c670b052,0.6506,
,,,,space,,0,218,218,190,1,P, , , , ,space,2000,2,,001,2021-08-19_16h26.37.253,natb3,2021.2.3,Win32,144.1753172,611a665e428e9a57ba0de804,611e07ecdcc96256ae8d5b80,611e77d6cdb681c8c670b052,0.7007,
,,,,space,,0,219,219,253,1,N, , , , ,space,2500,2.5,,001,2021-08-19_16h26.37.253,natb3,2021.2.3,Win32,144.1753172,611a665e428e9a57ba0de804,611e07ecdcc96256ae8d5b80,611e77d6cdb681c8c670b052,0.4103,
,,,,space,,0,220,220,310,1,J, , , , ,space,2500,2.5,,001,2021-08-19_16h26.37.253,natb3,2021.2.3,Win32,144.1753172,611a665e428e9a57ba0de804,611e07ecdcc96256ae8d5b80,611e77d6cdb681c8c670b052,0.3753,
,,,,,,0,221,221,96,1,X, , , , ,,1500,1.5,,001,2021-08-19_16h26.37.253,natb3,2021.2.3,Win32,144.1753172,611a665e428e9a57ba0de804,611e07ecdcc96256ae8d5b80,611e77d6cdb681c8c670b052,,
,,,,space,,0,222,222,172,1,C, , , , ,space,1500,1.5,,001,2021-08-19_16h26.37.253,natb3,2021.2.3,Win32,144.1753172,611a665e428e9a57ba0de804,611e07ecdcc96256ae8d5b80,611e77d6cdb681c8c670b052,0.401,
,,,,space,,0,223,223,231,1,I, , , , ,space,2500,2.5,,001,2021-08-19_16h26.37.253,natb3,2021.2.3,Win32,144.1753172,611a665e428e9a57ba0de804,611e07ecdcc96256ae8d5b80,611e77d6cdb681c8c670b052,0.4065,
,,,,space,,0,224,224,8,1,U, , , , ,space,1500,1.5,,001,2021-08-19_16h26.37.253,natb3,2021.2.3,Win32,144.1753172,611a665e428e9a57ba0de804,611e07ecdcc96256ae8d5b80,611e77d6cdb681c8c670b052,0.6055,
,,,,space,,0,225,225,270,1,S, , , , ,space,1500,1.5,,001,2021-08-19_16h26.37.253,natb3,2021.2.3,Win32,144.1753172,611a665e428e9a57ba0de804,611e07ecdcc96256ae8d5b80,611e77d6cdb681c8c670b052,0.3494,
,,,,space,,0,226,226,283,1,C, , , , ,space,1500,1.5,,001,2021-08-19_16h26.37.253,natb3,2021.2.3,Win32,144.1753172,611a665e428e9a57ba0de804,611e07ecdcc96256ae8d5b80,611e77d6cdb681c8c670b052,0.3682,
,,,,,,0,227,227,182,1,X, , , , ,,1500,1.5,,001,2021-08-19_16h26.37.253,natb3,2021.2.3,Win32,144.1753172,611a665e428e9a57ba0de804,611e07ecdcc96256ae8d5b80,611e77d6cdb681c8c670b052,,
,,,,space,,0,228,228,111,1,O, , , , ,space,2000,2,,001,2021-08-19_16h26.37.253,natb3,2021.2.3,Win32,144.1753172,611a665e428e9a57ba0de804,611e07ecdcc96256ae8d5b80,611e77d6cdb681c8c670b052,0.4332,
,,,,space,,0,229,229,79,1,P, , , , ,space,2000,2,,001,2021-08-19_16h26.37.253,natb3,2021.2.3,Win32,144.1753172,611a665e428e9a57ba0de804,611e07ecdcc96256ae8d5b80,611e77d6cdb681c8c670b052,0.4039,
,,,,space,,0,230,230,151,1,Y, , , , ,space,2500,2.5,,001,2021-08-19_16h26.37.253,natb3,2021.2.3,Win32,144.1753172,611a665e428e9a57ba0de804,611e07ecdcc96256ae8d5b80,611e77d6cdb681c8c670b052,0.4501,
,,,,space,,0,231,231,41,1,Y, , , , ,space,2500,2.5,,001,2021-08-19_16h26.37.253,natb3,2021.2.3,Win32,144.1753172,611a665e428e9a57ba0de804,611e07ecdcc96256ae8d5b80,611e77d6cdb681c8c670b052,0.4137,
,,,,space,,0,232,232,251,1,B, , , , ,space,1500,1.5,,001,2021-08-19_16h26.37.253,natb3,2021.2.3,Win32,144.1753172,611a665e428e9a57ba0de804,611e07ecdcc96256ae8d5b80,611e77d6cdb681c8c670b052,0.3484,
,,,,space,,0,233,233,101,1,Q, , , , ,space,2500,2.5,,001,2021-08-19_16h26.37.253,natb3,2021.2.3,Win32,144.1753172,611a665e428e9a57ba0de804,611e07ecdcc96256ae8d5b80,611e77d6cdb681c8c670b052,0.3929,
,,,,space,,0,234,234,65,1,M, , , , ,space,1500,1.5,,001,2021-08-19_16h26.37.253,natb3,2021.2.3,Win32,144.1753172,611a665e428e9a57ba0de804,611e07ecdcc96256ae8d5b80,611e77d6cdb681c8c670b052,0.4112,
,,,,space,,0,235,235,103,1,W, , , , ,space,2000,2,,001,2021-08-19_16h26.37.253,natb3,2021.2.3,Win32,144.1753172,611a665e428e9a57ba0de804,611e07ecdcc96256ae8d5b80,611e77d6cdb681c8c670b052,0.5037,
,,,,space,,0,236,236,124,1,P, , , , ,space,2000,2,,001,2021-08-19_16h26.37.253,natb3,2021.2.3,Win32,144.1753172,611a665e428e9a57ba0de804,611e07ecdcc96256ae8d5b80,611e77d6cdb681c8c670b052,0.4886,
,,,,space,,0,237,237,105,1,R, , , , ,space,2500,2.5,,001,2021-08-19_16h26.37.253,natb3,2021.2.3,Win32,144.1753172,611a665e428e9a57ba0de804,611e07ecdcc96256ae8d5b80,611e77d6cdb681c8c670b052,0.4189,
,,,,space,,0,238,238,167,1,K, , , , ,space,1500,1.5,,001,2021-08-19_16h26.37.253,natb3,2021.2.3,Win32,144.1753172,611a665e428e9a57ba0de804,611e07ecdcc96256ae8d5b80,611e77d6cdb681c8c670b052,0.6323,
,,,,,,0,239,239,35,1,X, , , , ,,2500,2.5,,001,2021-08-19_16h26.37.253,natb3,2021.2.3,Win32,144.1753172,611a665e428e9a57ba0de804,611e07ecdcc96256ae8d5b80,611e77d6cdb681c8c670b052,,
,,,,space,,0,240,240,177,1,M, , , , ,space,2500,2.5,,001,2021-08-19_16h26.37.253,natb3,2021.2.3,Win32,144.1753172,611a665e428e9a57ba0de804,611e07ecdcc96256ae8d5b80,611e77d6cdb681c8c670b052,0.4402,
,,,,space,,0,241,241,298,1,I, , , , ,space,2000,2,,001,2021-08-19_16h26.37.253,natb3,2021.2.3,Win32,144.1753172,611a665e428e9a57ba0de804,611e07ecdcc96256ae8d5b80,611e77d6cdb681c8c670b052,0.5168,
,,,,space,,0,242,242,165,1,J, , , , ,space,2500,2.5,,001,2021-08-19_16h26.37.253,natb3,2021.2.3,Win32,144.1753172,611a665e428e9a57ba0de804,611e07ecdcc96256ae8d5b80,611e77d6cdb681c8c670b052,0.5948,
,,,,space,,0,243,243,70,1,E, , , , ,space,2500,2.5,,001,2021-08-19_16h26.37.253,natb3,2021.2.3,Win32,144.1753172,611a665e428e9a57ba0de804,611e07ecdcc96256ae8d5b80,611e77d6cdb681c8c670b052,0.4677,
,,,,space,,0,244,244,266,1,O, , , , ,space,1500,1.5,,001,2021-08-19_16h26.37.253,natb3,2021.2.3,Win32,144.1753172,611a665e428e9a57ba0de804,611e07ecdcc96256ae8d5b80,611e77d6cdb681c8c670b052,0.438,
,,,,space,,0,245,245,3,1,R, , , , ,space,2000,2,,001,2021-08-19_16h26.37.253,natb3,2021.2.3,Win32,144.1753172,611a665e428e9a57ba0de804,611e07ecdcc96256ae8d5b80,611e77d6cdb681c8c670b052,0.4204,
,,,,space,,0,246,246,77,1,O, , , , ,space,2000,2,,001,2021-08-19_16h26.37.253,natb3,2021.2.3,Win32,144.1753172,611a665e428e9a57ba0de804,611e07ecdcc96256ae8d5b80,611e77d6cdb681c8c670b052,0.4308,
,,,,space,,0,247,247,88,1,J, , , , ,space,2500,2.5,,001,2021-08-19_16h26.37.253,natb3,2021.2.3,Win32,144.1753172,611a665e428e9a57ba0de804,611e07ecdcc96256ae8d5b80,611e77d6cdb681c8c670b052,0.4874,
,,,,space,,0,248,248,201,1,K, , , , ,space,1500,1.5,,001,2021-08-19_16h26.37.253,natb3,2021.2.3,Win32,144.1753172,611a665e428e9a57ba0de804,611e07ecdcc96256ae8d5b80,611e77d6cdb681c8c670b052,0.5632,
,,,,space,,0,249,249,37,1,E, , , , ,space,2500,2.5,,001,2021-08-19_16h26.37.253,natb3,2021.2.3,Win32,144.1753172,611a665e428e9a57ba0de804,611e07ecdcc96256ae8d5b80,611e77d6cdb681c8c670b052,0.4173,
,,,,space,,0,250,250,281,1,Z, , , , ,space,1500,1.5,,001,2021-08-19_16h26.37.253,natb3,2021.2.3,Win32,144.1753172,611a665e428e9a57ba0de804,611e07ecdcc96256ae8d5b80,611e77d6cdb681c8c670b052,0.464,
,,,,space,,0,251,251,81,1,S, , , , ,space,2000,2,,001,2021-08-19_16h26.37.253,natb3,2021.2.3,Win32,144.1753172,611a665e428e9a57ba0de804,611e07ecdcc96256ae8d5b80,611e77d6cdb681c8c670b052,0.413,
,,,,space,,0,252,252,180,1,W, , , , ,space,2000,2,,001,2021-08-19_16h26.37.253,natb3,2021.2.3,Win32,144.1753172,611a665e428e9a57ba0de804,611e07ecdcc96256ae8d5b80,611e77d6cdb681c8c670b052,0.4934,
,,,,space,,0,253,253,1,1,W, , , , ,space,2000,2,,001,2021-08-19_16h26.37.253,natb3,2021.2.3,Win32,144.1753172,611a665e428e9a57ba0de804,611e07ecdcc96256ae8d5b80,611e77d6cdb681c8c670b052,0.4774,
,,,,space,,0,254,254,149,1,R, , , , ,space,2000,2,,001,2021-08-19_16h26.37.253,natb3,2021.2.3,Win32,144.1753172,611a665e428e9a57ba0de804,611e07ecdcc96256ae8d5b80,611e77d6cdb681c8c670b052,0.4099,
,,,,,,0,255,255,302,1,X, , , , ,,2000,2,,001,2021-08-19_16h26.37.253,natb3,2021.2.3,Win32,144.1753172,611a665e428e9a57ba0de804,611e07ecdcc96256ae8d5b80,611e77d6cdb681c8c670b052,,
,,,,,,0,256,256,54,1,X, , , , ,,2000,2,,001,2021-08-19_16h26.37.253,natb3,2021.2.3,Win32,144.1753172,611a665e428e9a57ba0de804,611e07ecdcc96256ae8d5b80,611e77d6cdb681c8c670b052,,
,,,,space,,0,257,257,80,1,A, , , , ,space,2000,2,,001,2021-08-19_16h26.37.253,natb3,2021.2.3,Win32,144.1753172,611a665e428e9a57ba0de804,611e07ecdcc96256ae8d5b80,611e77d6cdb681c8c670b052,0.7791,
,,,,space,,0,258,258,126,1,A, , , , ,space,2500,2.5,,001,2021-08-19_16h26.37.253,natb3,2021.2.3,Win32,144.1753172,611a665e428e9a57ba0de804,611e07ecdcc96256ae8d5b80,611e77d6cdb681c8c670b052,0.7138,
,,,,space,,0,259,259,32,1,M, , , , ,space,1500,1.5,,001,2021-08-19_16h26.37.253,natb3,2021.2.3,Win32,144.1753172,611a665e428e9a57ba0de804,611e07ecdcc96256ae8d5b80,611e77d6cdb681c8c670b052,0.6624,
,,,,,,0,260,260,335,1,P,,,,,space,1500,1.5,,001,2021-08-19_16h26.37.253,natb3,2021.2.3,Win32,144.1753172,611a665e428e9a57ba0de804,611e07ecdcc96256ae8d5b80,611e77d6cdb681c8c670b052,,
,,,,space,,0,261,261,272,1,D, , , , ,space,2000,2,,001,2021-08-19_16h26.37.253,natb3,2021.2.3,Win32,144.1753172,611a665e428e9a57ba0de804,611e07ecdcc96256ae8d5b80,611e77d6cdb681c8c670b052,0.391,
,,,,,,0,262,262,107,1,X,9,3, ,2,,2000,2,,001,2021-08-19_16h26.37.253,natb3,2021.2.3,Win32,144.1753172,611a665e428e9a57ba0de804,611e07ecdcc96256ae8d5b80,611e77d6cdb681c8c670b052,,
,,,,space,,0,263,263,132,1,H, , , , ,space,2500,2.5,,001,2021-08-19_16h26.37.253,natb3,2021.2.3,Win32,144.1753172,611a665e428e9a57ba0de804,611e07ecdcc96256ae8d5b80,611e77d6cdb681c8c670b052,0.4211,
,,,,space,,0,264,264,176,1,N, , , , ,space,1500,1.5,,001,2021-08-19_16h26.37.253,natb3,2021.2.3,Win32,144.1753172,611a665e428e9a57ba0de804,611e07ecdcc96256ae8d5b80,611e77d6cdb681c8c670b052,0.4102,
,,,,space,,0,265,265,173,1,V, , , , ,space,1500,1.5,,001,2021-08-19_16h26.37.253,natb3,2021.2.3,Win32,144.1753172,611a665e428e9a57ba0de804,611e07ecdcc96256ae8d5b80,611e77d6cdb681c8c670b052,0.4807,
,,,,space,,0,266,266,20,1,H, , , , ,space,1500,1.5,,001,2021-08-19_16h26.37.253,natb3,2021.2.3,Win32,144.1753172,611a665e428e9a57ba0de804,611e07ecdcc96256ae8d5b80,611e77d6cdb681c8c670b052,0.3508,
,,,,,,0,267,267,233,1,X, ,2, ,5,,1500,1.5,,001,2021-08-19_16h26.37.253,natb3,2021.2.3,Win32,144.1753172,611a665e428e9a57ba0de804,611e07ecdcc96256ae8d5b80,611e77d6cdb681c8c670b052,,
,,,,,,0,268,268,252,1,X,3, ,6,9,,2000,2,,001,2021-08-19_16h26.37.253,natb3,2021.2.3,Win32,144.1753172,611a665e428e9a57ba0de804,611e07ecdcc96256ae8d5b80,611e77d6cdb681c8c670b052,,
,,,,space,,0,269,269,19,1,G, , , , ,space,1500,1.5,,001,2021-08-19_16h26.37.253,natb3,2021.2.3,Win32,144.1753172,611a665e428e9a57ba0de804,611e07ecdcc96256ae8d5b80,611e77d6cdb681c8c670b052,0.4997,
,,,,space,,0,270,270,264,1,U, , , , ,space,2000,2,,001,2021-08-19_16h26.37.253,natb3,2021.2.3,Win32,144.1753172,611a665e428e9a57ba0de804,611e07ecdcc96256ae8d5b80,611e77d6cdb681c8c670b052,0.3915,
,,,,space,,0,271,271,321,1,N, , , , ,space,2000,2,,001,2021-08-19_16h26.37.253,natb3,2021.2.3,Win32,144.1753172,611a665e428e9a57ba0de804,611e07ecdcc96256ae8d5b80,611e77d6cdb681c8c670b052,0.4398,
,,,,space,,0,272,272,40,1,T, , , , ,space,1500,1.5,,001,2021-08-19_16h26.37.253,natb3,2021.2.3,Win32,144.1753172,611a665e428e9a57ba0de804,611e07ecdcc96256ae8d5b80,611e77d6cdb681c8c670b052,0.3547,
,,,,space,,0,273,273,219,1,Y, , , , ,space,2000,2,,001,2021-08-19_16h26.37.253,natb3,2021.2.3,Win32,144.1753172,611a665e428e9a57ba0de804,611e07ecdcc96256ae8d5b80,611e77d6cdb681c8c670b052,0.3572,
,,,,space,,0,274,274,22,1,K, , , , ,space,2000,2,,001,2021-08-19_16h26.37.253,natb3,2021.2.3,Win32,144.1753172,611a665e428e9a57ba0de804,611e07ecdcc96256ae8d5b80,611e77d6cdb681c8c670b052,0.3532,
,,,,,,0,275,275,133,1,X, ,4, ,6,,2500,2.5,,001,2021-08-19_16h26.37.253,natb3,2021.2.3,Win32,144.1753172,611a665e428e9a57ba0de804,611e07ecdcc96256ae8d5b80,611e77d6cdb681c8c670b052,,
,,,,space,,0,276,276,130,1,F, , , , ,space,2000,2,,001,2021-08-19_16h26.37.253,natb3,2021.2.3,Win32,144.1753172,611a665e428e9a57ba0de804,611e07ecdcc96256ae8d5b80,611e77d6cdb681c8c670b052,0.393,
,,,,space,,0,277,277,245,1,K, , , , ,space,2000,2,,001,2021-08-19_16h26.37.253,natb3,2021.2.3,Win32,144.1753172,611a665e428e9a57ba0de804,611e07ecdcc96256ae8d5b80,611e77d6cdb681c8c670b052,0.3343,
,,,,,,0,278,278,51,1,X,7,5,8, ,,1500,1.5,,001,2021-08-19_16h26.37.253,natb3,2021.2.3,Win32,144.1753172,611a665e428e9a57ba0de804,611e07ecdcc96256ae8d5b80,611e77d6cdb681c8c670b052,,
,,,,,,0,279,279,175,1,X,7, ,4,2,,1500,1.5,,001,2021-08-19_16h26.37.253,natb3,2021.2.3,Win32,144.1753172,611a665e428e9a57ba0de804,611e07ecdcc96256ae8d5b80,611e77d6cdb681c8c670b052,,
,,,,space,,0,280,280,26,1,C, , , , ,space,2000,2,,001,2021-08-19_16h26.37.253,natb3,2021.2.3,Win32,144.1753172,611a665e428e9a57ba0de804,611e07ecdcc96256ae8d5b80,611e77d6cdb681c8c670b052,0.6432,
,,,,space,,0,281,281,259,1,X,8, , ,3,,2500,2.5,,001,2021-08-19_16h26.37.253,natb3,2021.2.3,Win32,144.1753172,611a665e428e9a57ba0de804,611e07ecdcc96256ae8d5b80,611e77d6cdb681c8c670b052,0.3513,
,,,,,,0,282,282,271,1,X, , , , ,,2500,2.5,,001,2021-08-19_16h26.37.253,natb3,2021.2.3,Win32,144.1753172,611a665e428e9a57ba0de804,611e07ecdcc96256ae8d5b80,611e77d6cdb681c8c670b052,,
,,,,space,,0,283,283,42,1,U, , , , ,space,1500,1.5,,001,2021-08-19_16h26.37.253,natb3,2021.2.3,Win32,144.1753172,611a665e428e9a57ba0de804,611e07ecdcc96256ae8d5b80,611e77d6cdb681c8c670b052,0.45,
,,,,space,,0,284,284,226,1,R, , , , ,space,2000,2,,001,2021-08-19_16h26.37.253,natb3,2021.2.3,Win32,144.1753172,611a665e428e9a57ba0de804,611e07ecdcc96256ae8d5b80,611e77d6cdb681c8c670b052,0.4709,
,,,,space,,0,285,285,262,1,Y, , , , ,space,2500,2.5,,001,2021-08-19_16h26.37.253,natb3,2021.2.3,Win32,144.1753172,611a665e428e9a57ba0de804,611e07ecdcc96256ae8d5b80,611e77d6cdb681c8c670b052,0.4242,
,,,,space,,0,286,286,174,1,B, , , , ,space,2500,2.5,,001,2021-08-19_16h26.37.253,natb3,2021.2.3,Win32,144.1753172,611a665e428e9a57ba0de804,611e07ecdcc96256ae8d5b80,611e77d6cdb681c8c670b052,0.4041,
,,,,space,,0,287,287,59,1,Z, , , , ,space,2000,2,,001,2021-08-19_16h26.37.253,natb3,2021.2.3,Win32,144.1753172,611a665e428e9a57ba0de804,611e07ecdcc96256ae8d5b80,611e77d6cdb681c8c670b052,0.4363,
,,,,space,,0,288,288,112,1,Q, , , , ,space,2500,2.5,,001,2021-08-19_16h26.37.253,natb3,2021.2.3,Win32,144.1753172,611a665e428e9a57ba0de804,611e07ecdcc96256ae8d5b80,611e77d6cdb681c8c670b052,0.4689,
,,,,space,,0,289,289,186,1,U, , , , ,space,2500,2.5,,001,2021-08-19_16h26.37.253,natb3,2021.2.3,Win32,144.1753172,611a665e428e9a57ba0de804,611e07ecdcc96256ae8d5b80,611e77d6cdb681c8c670b052,0.3898,
,,,,,,0,290,290,138,1,X,8,5, ,3,,2000,2,,001,2021-08-19_16h26.37.253,natb3,2021.2.3,Win32,144.1753172,611a665e428e9a57ba0de804,611e07ecdcc96256ae8d5b80,611e77d6cdb681c8c670b052,,
,,,,space,,0,291,291,184,1,T, , , , ,space,2000,2,,001,2021-08-19_16h26.37.253,natb3,2021.2.3,Win32,144.1753172,611a665e428e9a57ba0de804,611e07ecdcc96256ae8d5b80,611e77d6cdb681c8c670b052,0.3938,
,,,,,,0,292,292,158,1,X, , , , ,,1500,1.5,,001,2021-08-19_16h26.37.253,natb3,2021.2.3,Win32,144.1753172,611a665e428e9a57ba0de804,611e07ecdcc96256ae8d5b80,611e77d6cdb681c8c670b052,,
,,,,space,,0,293,293,307,1,F, , , , ,space,2500,2.5,,001,2021-08-19_16h26.37.253,natb3,2021.2.3,Win32,144.1753172,611a665e428e9a57ba0de804,611e07ecdcc96256ae8d5b80,611e77d6cdb681c8c670b052,0.3075,
,,,,space,,0,294,294,61,1,C, , , , ,space,2000,2,,001,2021-08-19_16h26.37.253,natb3,2021.2.3,Win32,144.1753172,611a665e428e9a57ba0de804,611e07ecdcc96256ae8d5b80,611e77d6cdb681c8c670b052,0.8135,
,,,,space,,0,295,295,237,1,S, , , , ,space,1500,1.5,,001,2021-08-19_16h26.37.253,natb3,2021.2.3,Win32,144.1753172,611a665e428e9a57ba0de804,611e07ecdcc96256ae8d5b80,611e77d6cdb681c8c670b052,0.4451,
,,,,space,,0,296,296,73,1,Y, , , , ,space,2000,2,,001,2021-08-19_16h26.37.253,natb3,2021.2.3,Win32,144.1753172,611a665e428e9a57ba0de804,611e07ecdcc96256ae8d5b80,611e77d6cdb681c8c670b052,0.3997,
,,,,space,,0,297,297,14,1,S, , , , ,space,2500,2.5,,001,2021-08-19_16h26.37.253,natb3,2021.2.3,Win32,144.1753172,611a665e428e9a57ba0de804,611e07ecdcc96256ae8d5b80,611e77d6cdb681c8c670b052,0.3991,
,,,,,,0,298,298,93,1,X,5, ,7, ,,2500,2.5,,001,2021-08-19_16h26.37.253,natb3,2021.2.3,Win32,144.1753172,611a665e428e9a57ba0de804,611e07ecdcc96256ae8d5b80,611e77d6cdb681c8c670b052,,
,,,,,,0,299,299,166,1,X, , , , ,,2000,2,,001,2021-08-19_16h26.37.253,natb3,2021.2.3,Win32,144.1753172,611a665e428e9a57ba0de804,611e07ecdcc96256ae8d5b80,611e77d6cdb681c8c670b052,,
,,,,,,0,300,300,291,1,X, , , , ,,2000,2,,001,2021-08-19_16h26.37.253,natb3,2021.2.3,Win32,144.1753172,611a665e428e9a57ba0de804,611e07ecdcc96256ae8d5b80,611e77d6cdb681c8c670b052,,
,,,,space,,0,301,301,334,1,O, , , , ,space,1500,1.5,,001,2021-08-19_16h26.37.253,natb3,2021.2.3,Win32,144.1753172,611a665e428e9a57ba0de804,611e07ecdcc96256ae8d5b80,611e77d6cdb681c8c670b052,0.3422,
,,,,,,0,302,302,82,1,X,4,6,1,7,,2000,2,,001,2021-08-19_16h26.37.253,natb3,2021.2.3,Win32,144.1753172,611a665e428e9a57ba0de804,611e07ecdcc96256ae8d5b80,611e77d6cdb681c8c670b052,,
,,,,space,,0,303,303,269,1,A, , , , ,space,2500,2.5,,001,2021-08-19_16h26.37.253,natb3,2021.2.3,Win32,144.1753172,611a665e428e9a57ba0de804,611e07ecdcc96256ae8d5b80,611e77d6cdb681c8c670b052,0.701,
,,,,space,,0,304,304,280,1,L, , , , ,space,1500,1.5,,001,2021-08-19_16h26.37.253,natb3,2021.2.3,Win32,144.1753172,611a665e428e9a57ba0de804,611e07ecdcc96256ae8d5b80,611e77d6cdb681c8c670b052,0.7726,
,,,,space,,0,305,305,188,1,I, , , , ,space,2500,2.5,,001,2021-08-19_16h26.37.253,natb3,2021.2.3,Win32,144.1753172,611a665e428e9a57ba0de804,611e07ecdcc96256ae8d5b80,611e77d6cdb681c8c670b052,0.576,
,,,,space,,0,306,306,169,1,L, , , , ,space,2500,2.5,,001,2021-08-19_16h26.37.253,natb3,2021.2.3,Win32,144.1753172,611a665e428e9a57ba0de804,611e07ecdcc96256ae8d5b80,611e77d6cdb681c8c670b052,0.4255,
,,,,space,,0,307,307,209,1,N, , , , ,space,2000,2,,001,2021-08-19_16h26.37.253,natb3,2021.2.3,Win32,144.1753172,611a665e428e9a57ba0de804,611e07ecdcc96256ae8d5b80,611e77d6cdb681c8c670b052,0.4752,
,,,,space,,0,308,308,326,1,W, , , , ,space,2000,2,,001,2021-08-19_16h26.37.253,natb3,2021.2.3,Win32,144.1753172,611a665e428e9a57ba0de804,611e07ecdcc96256ae8d5b80,611e77d6cdb681c8c670b052,0.416,
,,,,space,,0,309,309,67,1,Q, , , , ,space,2000,2,,001,2021-08-19_16h26.37.253,natb3,2021.2.3,Win32,144.1753172,611a665e428e9a57ba0de804,611e07ecdcc96256ae8d5b80,611e77d6cdb681c8c670b052,0.3453,
,,,,space,,0,310,310,312,1,K, , , , ,space,2000,2,,001,2021-08-19_16h26.37.253,natb3,2021.2.3,Win32,144.1753172,611a665e428e9a57ba0de804,611e07ecdcc96256ae8d5b80,611e77d6cdb681c8c670b052,0.4462,
,,,,,,0,311,311,322,1,X, , ,1,6,,2000,2,,001,2021-08-19_16h26.37.253,natb3,2021.2.3,Win32,144.1753172,611a665e428e9a57ba0de804,611e07ecdcc96256ae8d5b80,611e77d6cdb681c8c670b052,,
,,,,space,,0,312,312,221,1,I, , , , ,space,2500,2.5,,001,2021-08-19_16h26.37.253,natb3,2021.2.3,Win32,144.1753172,611a665e428e9a57ba0de804,611e07ecdcc96256ae8d5b80,611e77d6cdb681c8c670b052,0.3768,
,,,,space,,0,313,313,159,1,S, , , , ,space,2500,2.5,,001,2021-08-19_16h26.37.253,natb3,2021.2.3,Win32,144.1753172,611a665e428e9a57ba0de804,611e07ecdcc96256ae8d5b80,611e77d6cdb681c8c670b052,0.4174,
,,,,space,,0,314,314,76,1,I, , , , ,space,2000,2,,001,2021-08-19_16h26.37.253,natb3,2021.2.3,Win32,144.1753172,611a665e428e9a57ba0de804,611e07ecdcc96256ae8d5b80,611e77d6cdb681c8c670b052,0.4749,
,,,,space,,0,315,315,301,1,P, , , , ,space,1500,1.5,,001,2021-08-19_16h26.37.253,natb3,2021.2.3,Win32,144.1753172,611a665e428e9a57ba0de804,611e07ecdcc96256ae8d5b80,611e77d6cdb681c8c670b052,0.4042,
,,,,space,,0,316,316,6,1,Y, , , , ,space,2500,2.5,,001,2021-08-19_16h26.37.253,natb3,2021.2.3,Win32,144.1753172,611a665e428e9a57ba0de804,611e07ecdcc96256ae8d5b80,611e77d6cdb681c8c670b052,0.4005,
,,,,space,,0,317,317,143,1,M, , , , ,space,2500,2.5,,001,2021-08-19_16h26.37.253,natb3,2021.2.3,Win32,144.1753172,611a665e428e9a57ba0de804,611e07ecdcc96256ae8d5b80,611e77d6cdb681c8c670b052,0.4056,
,,,,space,,0,318,318,286,1,N, , , , ,space,1500,1.5,,001,2021-08-19_16h26.37.253,natb3,2021.2.3,Win32,144.1753172,611a665e428e9a57ba0de804,611e07ecdcc96256ae8d5b80,611e77d6cdb681c8c670b052,0.4622,
,,,,space,,0,319,319,211,1,X, , , , ,,2500,2.5,,001,2021-08-19_16h26.37.253,natb3,2021.2.3,Win32,144.1753172,611a665e428e9a57ba0de804,611e07ecdcc96256ae8d5b80,611e77d6cdb681c8c670b052,0.358,
,,,,space,,0,320,320,2,1,E, , , , ,space,2500,2.5,,001,2021-08-19_16h26.37.253,natb3,2021.2.3,Win32,144.1753172,611a665e428e9a57ba0de804,611e07ecdcc96256ae8d5b80,611e77d6cdb681c8c670b052,0.4964,
,,,,space,,0,321,321,63,1,B, , , , ,space,2000,2,,001,2021-08-19_16h26.37.253,natb3,2021.2.3,Win32,144.1753172,611a665e428e9a57ba0de804,611e07ecdcc96256ae8d5b80,611e77d6cdb681c8c670b052,0.4725,
,,,,space,,0,322,322,327,1,E, , , , ,space,1500,1.5,,001,2021-08-19_16h26.37.253,natb3,2021.2.3,Win32,144.1753172,611a665e428e9a57ba0de804,611e07ecdcc96256ae8d5b80,611e77d6cdb681c8c670b052,0.4777,
,,,,space,,0,323,323,225,1,E, , , , ,space,2000,2,,001,2021-08-19_16h26.37.253,natb3,2021.2.3,Win32,144.1753172,611a665e428e9a57ba0de804,611e07ecdcc96256ae8d5b80,611e77d6cdb681c8c670b052,0.4459,
,,,,space,,0,324,324,247,1,Z, , , , ,space,1500,1.5,,001,2021-08-19_16h26.37.253,natb3,2021.2.3,Win32,144.1753172,611a665e428e9a57ba0de804,611e07ecdcc96256ae8d5b80,611e77d6cdb681c8c670b052,0.614,
,,,,,,0,325,325,243,1,X, , , , ,,2500,2.5,,001,2021-08-19_16h26.37.253,natb3,2021.2.3,Win32,144.1753172,611a665e428e9a57ba0de804,611e07ecdcc96256ae8d5b80,611e77d6cdb681c8c670b052,,
,,,,space,,0,326,326,232,1,O, , , , ,space,2500,2.5,,001,2021-08-19_16h26.37.253,natb3,2021.2.3,Win32,144.1753172,611a665e428e9a57ba0de804,611e07ecdcc96256ae8d5b80,611e77d6cdb681c8c670b052,0.459,
,,,,,,0,327,327,168,1,X, , , , ,,2500,2.5,,001,2021-08-19_16h26.37.253,natb3,2021.2.3,Win32,144.1753172,611a665e428e9a57ba0de804,611e07ecdcc96256ae8d5b80,611e77d6cdb681c8c670b052,,
,,,,space,,0,328,328,157,1,A, , , , ,space,2500,2.5,,001,2021-08-19_16h26.37.253,natb3,2021.2.3,Win32,144.1753172,611a665e428e9a57ba0de804,611e07ecdcc96256ae8d5b80,611e77d6cdb681c8c670b052,0.4877,
,,,,space,,0,329,329,198,1,H, , , , ,space,2500,2.5,,001,2021-08-19_16h26.37.253,natb3,2021.2.3,Win32,144.1753172,611a665e428e9a57ba0de804,611e07ecdcc96256ae8d5b80,611e77d6cdb681c8c670b052,0.7019,
,,,,,,0,330,330,56,1,J, , , , ,space,1500,1.5,,001,2021-08-19_16h26.37.253,natb3,2021.2.3,Win32,144.1753172,611a665e428e9a57ba0de804,611e07ecdcc96256ae8d5b80,611e77d6cdb681c8c670b052,,
,,,,,,0,331,331,273,1,X, , , , ,,2000,2,,001,2021-08-19_16h26.37.253,natb3,2021.2.3,Win32,144.1753172,611a665e428e9a57ba0de804,611e07ecdcc96256ae8d5b80,611e77d6cdb681c8c670b052,,
,,,,space,,0,332,332,289,1,Q, , , , ,space,2000,2,,001,2021-08-19_16h26.37.253,natb3,2021.2.3,Win32,144.1753172,611a665e428e9a57ba0de804,611e07ecdcc96256ae8d5b80,611e77d6cdb681c8c670b052,0.605,
,,,,space,,0,333,333,164,1,H, , , , ,space,2500,2.5,,001,2021-08-19_16h26.37.253,natb3,2021.2.3,Win32,144.1753172,611a665e428e9a57ba0de804,611e07ecdcc96256ae8d5b80,611e77d6cdb681c8c670b052,0.5233,
,,,,space,,0,334,334,48,1,A, , , , ,space,2500,2.5,,001,2021-08-19_16h26.37.253,natb3,2021.2.3,Win32,144.1753172,611a665e428e9a57ba0de804,611e07ecdcc96256ae8d5b80,611e77d6cdb681c8c670b052,0.5397,
,,,,space,,0,335,335,91,1,L, , , , ,space,2000,2,,001,2021-08-19_16h26.37.253,natb3,2021.2.3,Win32,144.1753172,611a665e428e9a57ba0de804,611e07ecdcc96256ae8d5b80,611e77d6cdb681c8c670b052,0.561,
