key_resp_2.keys,key_resp_2.rt,key_resp_3.keys,key_resp_3.rt,key_resp.keys,key_resp_4.keys,trials.thisRepN,trials.thisTrialN,trials.thisN,trials.thisIndex,trials.ran,stimulus,distractor1,distractor2,distractor3,distractor4,CorrAns,isi_duration,isi_dur_in_seconds,participant,session,date,expName,psychopyVersion,OS,frameRate,PROLIFIC_PID,STUDY_ID,SESSION_ID,key_resp.rt,key_resp_4.rt
return,20.301,space,12.149,,,0,0,0,266,1,O, , , , ,space,1500,1.5,Stephen,001,2021-08-19_15h46.14.183,natb3,2021.2.3,MacIntel,58.82352941,611d98a5271a723d15d9604a,611e07ecdcc96256ae8d5b80,611e6e8877b9bceaf5212eb1,,
,,,,space,,0,1,1,55,1,H, , , , ,space,2500,2.5,Stephen,001,2021-08-19_15h46.14.183,natb3,2021.2.3,MacIntel,58.82352941,611d98a5271a723d15d9604a,611e07ecdcc96256ae8d5b80,611e6e8877b9bceaf5212eb1,0.397,
,,,,space,,0,2,2,88,1,J, , , , ,space,2500,2.5,Stephen,001,2021-08-19_15h46.14.183,natb3,2021.2.3,MacIntel,58.82352941,611d98a5271a723d15d9604a,611e07ecdcc96256ae8d5b80,611e6e8877b9bceaf5212eb1,0.38,
,,,,space,,0,3,3,59,1,Z, , , , ,space,2000,2,Stephen,001,2021-08-19_15h46.14.183,natb3,2021.2.3,MacIntel,58.82352941,611d98a5271a723d15d9604a,611e07ecdcc96256ae8d5b80,611e6e8877b9bceaf5212eb1,0.449,
,,,,space,,0,4,4,310,1,J, , , , ,space,2500,2.5,Stephen,001,2021-08-19_15h46.14.183,natb3,2021.2.3,MacIntel,58.82352941,611d98a5271a723d15d9604a,611e07ecdcc96256ae8d5b80,611e6e8877b9bceaf5212eb1,0.392,
,,,,space,,0,5,5,333,1,I, , , , ,space,1500,1.5,Stephen,001,2021-08-19_15h46.14.183,natb3,2021.2.3,MacIntel,58.82352941,611d98a5271a723d15d9604a,611e07ecdcc96256ae8d5b80,611e6e8877b9bceaf5212eb1,0.399,
,,,,space,,0,6,6,41,1,Y, , , , ,space,2500,2.5,Stephen,001,2021-08-19_15h46.14.183,natb3,2021.2.3,MacIntel,58.82352941,611d98a5271a723d15d9604a,611e07ecdcc96256ae8d5b80,611e6e8877b9bceaf5212eb1,0.391,
,,,,space,,0,7,7,1,1,W, , , , ,space,2000,2,Stephen,001,2021-08-19_15h46.14.183,natb3,2021.2.3,MacIntel,58.82352941,611d98a5271a723d15d9604a,611e07ecdcc96256ae8d5b80,611e6e8877b9bceaf5212eb1,0.481,
,,,,space,,0,8,8,20,1,H, , , , ,space,1500,1.5,Stephen,001,2021-08-19_15h46.14.183,natb3,2021.2.3,MacIntel,58.82352941,611d98a5271a723d15d9604a,611e07ecdcc96256ae8d5b80,611e6e8877b9bceaf5212eb1,0.406,
,,,,space,,0,9,9,164,1,H, , , , ,space,2500,2.5,Stephen,001,2021-08-19_15h46.14.183,natb3,2021.2.3,MacIntel,58.82352941,611d98a5271a723d15d9604a,611e07ecdcc96256ae8d5b80,611e6e8877b9bceaf5212eb1,0.449,
,,,,space,,0,10,10,128,1,D, , , , ,space,2500,2.5,Stephen,001,2021-08-19_15h46.14.183,natb3,2021.2.3,MacIntel,58.82352941,611d98a5271a723d15d9604a,611e07ecdcc96256ae8d5b80,611e6e8877b9bceaf5212eb1,0.364,
,,,,space,,0,11,11,38,1,R, , , , ,space,2500,2.5,Stephen,001,2021-08-19_15h46.14.183,natb3,2021.2.3,MacIntel,58.82352941,611d98a5271a723d15d9604a,611e07ecdcc96256ae8d5b80,611e6e8877b9bceaf5212eb1,0.37,
,,,,,,0,12,12,268,1,X,6, ,3, ,,2500,2.5,Stephen,001,2021-08-19_15h46.14.183,natb3,2021.2.3,MacIntel,58.82352941,611d98a5271a723d15d9604a,611e07ecdcc96256ae8d5b80,611e6e8877b9bceaf5212eb1,,
,,,,space,,0,13,13,64,1,N, , , , ,space,2000,2,Stephen,001,2021-08-19_15h46.14.183,natb3,2021.2.3,MacIntel,58.82352941,611d98a5271a723d15d9604a,611e07ecdcc96256ae8d5b80,611e6e8877b9bceaf5212eb1,0.442,
,,,,space,,0,14,14,58,1,L, , , , ,space,2000,2,Stephen,001,2021-08-19_15h46.14.183,natb3,2021.2.3,MacIntel,58.82352941,611d98a5271a723d15d9604a,611e07ecdcc96256ae8d5b80,611e6e8877b9bceaf5212eb1,0.472,
,,,,space,,0,15,15,12,1,X, , , , ,,1500,1.5,Stephen,001,2021-08-19_15h46.14.183,natb3,2021.2.3,MacIntel,58.82352941,611d98a5271a723d15d9604a,611e07ecdcc96256ae8d5b80,611e6e8877b9bceaf5212eb1,0.416,
,,,,space,,0,16,16,235,1,A, , , , ,space,1500,1.5,Stephen,001,2021-08-19_15h46.14.183,natb3,2021.2.3,MacIntel,58.82352941,611d98a5271a723d15d9604a,611e07ecdcc96256ae8d5b80,611e6e8877b9bceaf5212eb1,0.49,
,,,,space,,0,17,17,183,1,R, , , , ,space,1500,1.5,Stephen,001,2021-08-19_15h46.14.183,natb3,2021.2.3,MacIntel,58.82352941,611d98a5271a723d15d9604a,611e07ecdcc96256ae8d5b80,611e6e8877b9bceaf5212eb1,0.7,
,,,,space,,0,18,18,330,1,T, , , , ,space,2500,2.5,Stephen,001,2021-08-19_15h46.14.183,natb3,2021.2.3,MacIntel,58.82352941,611d98a5271a723d15d9604a,611e07ecdcc96256ae8d5b80,611e6e8877b9bceaf5212eb1,0.42,
,,,,space,,0,19,19,120,1,U, , , , ,space,1500,1.5,Stephen,001,2021-08-19_15h46.14.183,natb3,2021.2.3,MacIntel,58.82352941,611d98a5271a723d15d9604a,611e07ecdcc96256ae8d5b80,611e6e8877b9bceaf5212eb1,0.515,
,,,,space,,0,20,20,2,1,E, , , , ,space,2500,2.5,Stephen,001,2021-08-19_15h46.14.183,natb3,2021.2.3,MacIntel,58.82352941,611d98a5271a723d15d9604a,611e07ecdcc96256ae8d5b80,611e6e8877b9bceaf5212eb1,0.42,
,,,,space,,0,21,21,126,1,A, , , , ,space,2500,2.5,Stephen,001,2021-08-19_15h46.14.183,natb3,2021.2.3,MacIntel,58.82352941,611d98a5271a723d15d9604a,611e07ecdcc96256ae8d5b80,611e6e8877b9bceaf5212eb1,0.439,
,,,,space,,0,22,22,97,1,B, , , , ,space,2500,2.5,Stephen,001,2021-08-19_15h46.14.183,natb3,2021.2.3,MacIntel,58.82352941,611d98a5271a723d15d9604a,611e07ecdcc96256ae8d5b80,611e6e8877b9bceaf5212eb1,0.398,
,,,,space,,0,23,23,262,1,Y, , , , ,space,2500,2.5,Stephen,001,2021-08-19_15h46.14.183,natb3,2021.2.3,MacIntel,58.82352941,611d98a5271a723d15d9604a,611e07ecdcc96256ae8d5b80,611e6e8877b9bceaf5212eb1,0.483,
,,,,space,,0,24,24,25,1,Z, , , , ,space,2500,2.5,Stephen,001,2021-08-19_15h46.14.183,natb3,2021.2.3,MacIntel,58.82352941,611d98a5271a723d15d9604a,611e07ecdcc96256ae8d5b80,611e6e8877b9bceaf5212eb1,0.567,
,,,,space,,0,25,25,121,1,I, , , , ,space,2000,2,Stephen,001,2021-08-19_15h46.14.183,natb3,2021.2.3,MacIntel,58.82352941,611d98a5271a723d15d9604a,611e07ecdcc96256ae8d5b80,611e6e8877b9bceaf5212eb1,0.524,
,,,,space,,0,26,26,154,1,I, , , , ,space,2500,2.5,Stephen,001,2021-08-19_15h46.14.183,natb3,2021.2.3,MacIntel,58.82352941,611d98a5271a723d15d9604a,611e07ecdcc96256ae8d5b80,611e6e8877b9bceaf5212eb1,0.394,
,,,,space,,0,27,27,10,1,O, , , , ,space,2000,2,Stephen,001,2021-08-19_15h46.14.183,natb3,2021.2.3,MacIntel,58.82352941,611d98a5271a723d15d9604a,611e07ecdcc96256ae8d5b80,611e6e8877b9bceaf5212eb1,0.482,
,,,,space,,0,28,28,16,1,D, , , , ,space,1500,1.5,Stephen,001,2021-08-19_15h46.14.183,natb3,2021.2.3,MacIntel,58.82352941,611d98a5271a723d15d9604a,611e07ecdcc96256ae8d5b80,611e6e8877b9bceaf5212eb1,0.5,
,,,,space,,0,29,29,314,1,L, , , , ,space,1500,1.5,Stephen,001,2021-08-19_15h46.14.183,natb3,2021.2.3,MacIntel,58.82352941,611d98a5271a723d15d9604a,611e07ecdcc96256ae8d5b80,611e6e8877b9bceaf5212eb1,0.519,
,,,,space,,0,30,30,26,1,C, , , , ,space,2000,2,Stephen,001,2021-08-19_15h46.14.183,natb3,2021.2.3,MacIntel,58.82352941,611d98a5271a723d15d9604a,611e07ecdcc96256ae8d5b80,611e6e8877b9bceaf5212eb1,0.373,
,,,,space,,0,31,31,76,1,I, , , , ,space,2000,2,Stephen,001,2021-08-19_15h46.14.183,natb3,2021.2.3,MacIntel,58.82352941,611d98a5271a723d15d9604a,611e07ecdcc96256ae8d5b80,611e6e8877b9bceaf5212eb1,0.464,
,,,,space,,0,32,32,174,1,B, , , , ,space,2500,2.5,Stephen,001,2021-08-19_15h46.14.183,natb3,2021.2.3,MacIntel,58.82352941,611d98a5271a723d15d9604a,611e07ecdcc96256ae8d5b80,611e6e8877b9bceaf5212eb1,0.321,
,,,,space,,0,33,33,142,1,N, , , , ,space,2500,2.5,Stephen,001,2021-08-19_15h46.14.183,natb3,2021.2.3,MacIntel,58.82352941,611d98a5271a723d15d9604a,611e07ecdcc96256ae8d5b80,611e6e8877b9bceaf5212eb1,0.38,
,,,,space,,0,34,34,36,1,W, , , , ,space,2000,2,Stephen,001,2021-08-19_15h46.14.183,natb3,2021.2.3,MacIntel,58.82352941,611d98a5271a723d15d9604a,611e07ecdcc96256ae8d5b80,611e6e8877b9bceaf5212eb1,0.415,
,,,,,,0,35,35,168,1,X, , , , ,,2500,2.5,Stephen,001,2021-08-19_15h46.14.183,natb3,2021.2.3,MacIntel,58.82352941,611d98a5271a723d15d9604a,611e07ecdcc96256ae8d5b80,611e6e8877b9bceaf5212eb1,,
,,,,space,,0,36,36,136,1,Z, , , , ,space,2500,2.5,Stephen,001,2021-08-19_15h46.14.183,natb3,2021.2.3,MacIntel,58.82352941,611d98a5271a723d15d9604a,611e07ecdcc96256ae8d5b80,611e6e8877b9bceaf5212eb1,0.519,
,,,,,,0,37,37,18,1,X, ,2,5,8,,2500,2.5,Stephen,001,2021-08-19_15h46.14.183,natb3,2021.2.3,MacIntel,58.82352941,611d98a5271a723d15d9604a,611e07ecdcc96256ae8d5b80,611e6e8877b9bceaf5212eb1,,
,,,,,,0,38,38,35,1,X, , , , ,,2500,2.5,Stephen,001,2021-08-19_15h46.14.183,natb3,2021.2.3,MacIntel,58.82352941,611d98a5271a723d15d9604a,611e07ecdcc96256ae8d5b80,611e6e8877b9bceaf5212eb1,,
,,,,space,,0,39,39,323,1,M, , , , ,space,2500,2.5,Stephen,001,2021-08-19_15h46.14.183,natb3,2021.2.3,MacIntel,58.82352941,611d98a5271a723d15d9604a,611e07ecdcc96256ae8d5b80,611e6e8877b9bceaf5212eb1,0.53,
,,,,space,,0,40,40,289,1,Q, , , , ,space,2000,2,Stephen,001,2021-08-19_15h46.14.183,natb3,2021.2.3,MacIntel,58.82352941,611d98a5271a723d15d9604a,611e07ecdcc96256ae8d5b80,611e6e8877b9bceaf5212eb1,0.714,
,,,,space,,0,41,41,317,1,C, , , , ,space,2000,2,Stephen,001,2021-08-19_15h46.14.183,natb3,2021.2.3,MacIntel,58.82352941,611d98a5271a723d15d9604a,611e07ecdcc96256ae8d5b80,611e6e8877b9bceaf5212eb1,0.448,
,,,,space,,0,42,42,253,1,N, , , , ,space,2500,2.5,Stephen,001,2021-08-19_15h46.14.183,natb3,2021.2.3,MacIntel,58.82352941,611d98a5271a723d15d9604a,611e07ecdcc96256ae8d5b80,611e6e8877b9bceaf5212eb1,0.381,
,,,,space,,0,43,43,57,1,K, , , , ,space,2500,2.5,Stephen,001,2021-08-19_15h46.14.183,natb3,2021.2.3,MacIntel,58.82352941,611d98a5271a723d15d9604a,611e07ecdcc96256ae8d5b80,611e6e8877b9bceaf5212eb1,0.348,
,,,,space,,0,44,44,117,1,T, , , , ,space,2500,2.5,Stephen,001,2021-08-19_15h46.14.183,natb3,2021.2.3,MacIntel,58.82352941,611d98a5271a723d15d9604a,611e07ecdcc96256ae8d5b80,611e6e8877b9bceaf5212eb1,0.431,
,,,,space,,0,45,45,256,1,Q, , , , ,space,2000,2,Stephen,001,2021-08-19_15h46.14.183,natb3,2021.2.3,MacIntel,58.82352941,611d98a5271a723d15d9604a,611e07ecdcc96256ae8d5b80,611e6e8877b9bceaf5212eb1,0.4,
,,,,space,,0,46,46,70,1,E, , , , ,space,2500,2.5,Stephen,001,2021-08-19_15h46.14.183,natb3,2021.2.3,MacIntel,58.82352941,611d98a5271a723d15d9604a,611e07ecdcc96256ae8d5b80,611e6e8877b9bceaf5212eb1,0.391,
,,,,,,0,47,47,200,1,X,7, ,5,3,,1500,1.5,Stephen,001,2021-08-19_15h46.14.183,natb3,2021.2.3,MacIntel,58.82352941,611d98a5271a723d15d9604a,611e07ecdcc96256ae8d5b80,611e6e8877b9bceaf5212eb1,,
,,,,space,,0,48,48,189,1,O, , , , ,space,1500,1.5,Stephen,001,2021-08-19_15h46.14.183,natb3,2021.2.3,MacIntel,58.82352941,611d98a5271a723d15d9604a,611e07ecdcc96256ae8d5b80,611e6e8877b9bceaf5212eb1,0.46,
,,,,space,,0,49,49,48,1,A, , , , ,space,2500,2.5,Stephen,001,2021-08-19_15h46.14.183,natb3,2021.2.3,MacIntel,58.82352941,611d98a5271a723d15d9604a,611e07ecdcc96256ae8d5b80,611e6e8877b9bceaf5212eb1,0.483,
,,,,space,,0,50,50,264,1,U, , , , ,space,2000,2,Stephen,001,2021-08-19_15h46.14.183,natb3,2021.2.3,MacIntel,58.82352941,611d98a5271a723d15d9604a,611e07ecdcc96256ae8d5b80,611e6e8877b9bceaf5212eb1,0.487,
,,,,space,,0,51,51,272,1,D, , , , ,space,2000,2,Stephen,001,2021-08-19_15h46.14.183,natb3,2021.2.3,MacIntel,58.82352941,611d98a5271a723d15d9604a,611e07ecdcc96256ae8d5b80,611e6e8877b9bceaf5212eb1,0.49,
,,,,space,,0,52,52,32,1,M, , , , ,space,1500,1.5,Stephen,001,2021-08-19_15h46.14.183,natb3,2021.2.3,MacIntel,58.82352941,611d98a5271a723d15d9604a,611e07ecdcc96256ae8d5b80,611e6e8877b9bceaf5212eb1,0.591,
,,,,space,,0,53,53,92,1,Z, , , , ,space,1500,1.5,Stephen,001,2021-08-19_15h46.14.183,natb3,2021.2.3,MacIntel,58.82352941,611d98a5271a723d15d9604a,611e07ecdcc96256ae8d5b80,611e6e8877b9bceaf5212eb1,0.549,
,,,,space,,0,54,54,332,1,U, , , , ,space,2000,2,Stephen,001,2021-08-19_15h46.14.183,natb3,2021.2.3,MacIntel,58.82352941,611d98a5271a723d15d9604a,611e07ecdcc96256ae8d5b80,611e6e8877b9bceaf5212eb1,0.413,
,,,,,,0,55,55,322,1,X, , ,1,6,,2000,2,Stephen,001,2021-08-19_15h46.14.183,natb3,2021.2.3,MacIntel,58.82352941,611d98a5271a723d15d9604a,611e07ecdcc96256ae8d5b80,611e6e8877b9bceaf5212eb1,,
,,,,space,,0,56,56,324,1,Q, , , , ,space,2000,2,Stephen,001,2021-08-19_15h46.14.183,natb3,2021.2.3,MacIntel,58.82352941,611d98a5271a723d15d9604a,611e07ecdcc96256ae8d5b80,611e6e8877b9bceaf5212eb1,0.41,
,,,,space,,0,57,57,114,1,E, , , , ,space,2000,2,Stephen,001,2021-08-19_15h46.14.183,natb3,2021.2.3,MacIntel,58.82352941,611d98a5271a723d15d9604a,611e07ecdcc96256ae8d5b80,611e6e8877b9bceaf5212eb1,0.464,
,,,,space,,0,58,58,137,1,C, , , , ,space,2500,2.5,Stephen,001,2021-08-19_15h46.14.183,natb3,2021.2.3,MacIntel,58.82352941,611d98a5271a723d15d9604a,611e07ecdcc96256ae8d5b80,611e6e8877b9bceaf5212eb1,0.466,
,,,,space,,0,59,59,159,1,S, , , , ,space,2500,2.5,Stephen,001,2021-08-19_15h46.14.183,natb3,2021.2.3,MacIntel,58.82352941,611d98a5271a723d15d9604a,611e07ecdcc96256ae8d5b80,611e6e8877b9bceaf5212eb1,0.434,
,,,,space,,0,60,60,303,1,A, , , , ,space,2000,2,Stephen,001,2021-08-19_15h46.14.183,natb3,2021.2.3,MacIntel,58.82352941,611d98a5271a723d15d9604a,611e07ecdcc96256ae8d5b80,611e6e8877b9bceaf5212eb1,0.522,
,,,,space,,0,61,61,8,1,U, , , , ,space,1500,1.5,Stephen,001,2021-08-19_15h46.14.183,natb3,2021.2.3,MacIntel,58.82352941,611d98a5271a723d15d9604a,611e07ecdcc96256ae8d5b80,611e6e8877b9bceaf5212eb1,0.49,
,,,,,,0,62,62,305,1,X, , , , ,,1500,1.5,Stephen,001,2021-08-19_15h46.14.183,natb3,2021.2.3,MacIntel,58.82352941,611d98a5271a723d15d9604a,611e07ecdcc96256ae8d5b80,611e6e8877b9bceaf5212eb1,,
,,,,,,0,63,63,116,1,X, , , , ,,2000,2,Stephen,001,2021-08-19_15h46.14.183,natb3,2021.2.3,MacIntel,58.82352941,611d98a5271a723d15d9604a,611e07ecdcc96256ae8d5b80,611e6e8877b9bceaf5212eb1,,
,,,,space,,0,64,64,258,1,E, , , , ,space,1500,1.5,Stephen,001,2021-08-19_15h46.14.183,natb3,2021.2.3,MacIntel,58.82352941,611d98a5271a723d15d9604a,611e07ecdcc96256ae8d5b80,611e6e8877b9bceaf5212eb1,0.486,
,,,,space,,0,65,65,110,1,I, , , , ,space,1500,1.5,Stephen,001,2021-08-19_15h46.14.183,natb3,2021.2.3,MacIntel,58.82352941,611d98a5271a723d15d9604a,611e07ecdcc96256ae8d5b80,611e6e8877b9bceaf5212eb1,0.634,
,,,,,,0,66,66,133,1,X, ,4, ,6,,2500,2.5,Stephen,001,2021-08-19_15h46.14.183,natb3,2021.2.3,MacIntel,58.82352941,611d98a5271a723d15d9604a,611e07ecdcc96256ae8d5b80,611e6e8877b9bceaf5212eb1,,
,,,,space,,0,67,67,190,1,P, , , , ,space,2000,2,Stephen,001,2021-08-19_15h46.14.183,natb3,2021.2.3,MacIntel,58.82352941,611d98a5271a723d15d9604a,611e07ecdcc96256ae8d5b80,611e6e8877b9bceaf5212eb1,0.451,
,,,,space,,0,68,68,91,1,L, , , , ,space,2000,2,Stephen,001,2021-08-19_15h46.14.183,natb3,2021.2.3,MacIntel,58.82352941,611d98a5271a723d15d9604a,611e07ecdcc96256ae8d5b80,611e6e8877b9bceaf5212eb1,0.482,
,,,,space,,0,69,69,80,1,A, , , , ,space,2000,2,Stephen,001,2021-08-19_15h46.14.183,natb3,2021.2.3,MacIntel,58.82352941,611d98a5271a723d15d9604a,611e07ecdcc96256ae8d5b80,611e6e8877b9bceaf5212eb1,0.43,
,,,,space,,0,70,70,132,1,H, , , , ,space,2500,2.5,Stephen,001,2021-08-19_15h46.14.183,natb3,2021.2.3,MacIntel,58.82352941,611d98a5271a723d15d9604a,611e07ecdcc96256ae8d5b80,611e6e8877b9bceaf5212eb1,0.488,
,,,,space,,0,71,71,316,1,Z, , , , ,space,1500,1.5,Stephen,001,2021-08-19_15h46.14.183,natb3,2021.2.3,MacIntel,58.82352941,611d98a5271a723d15d9604a,611e07ecdcc96256ae8d5b80,611e6e8877b9bceaf5212eb1,0.499,
,,,,space,,0,72,72,185,1,Y, , , , ,space,2500,2.5,Stephen,001,2021-08-19_15h46.14.183,natb3,2021.2.3,MacIntel,58.82352941,611d98a5271a723d15d9604a,611e07ecdcc96256ae8d5b80,611e6e8877b9bceaf5212eb1,0.484,
,,,,,,0,73,73,195,1,X, , , , ,,1500,1.5,Stephen,001,2021-08-19_15h46.14.183,natb3,2021.2.3,MacIntel,58.82352941,611d98a5271a723d15d9604a,611e07ecdcc96256ae8d5b80,611e6e8877b9bceaf5212eb1,,
,,,,space,,0,74,74,95,1,V, , , , ,space,1500,1.5,Stephen,001,2021-08-19_15h46.14.183,natb3,2021.2.3,MacIntel,58.82352941,611d98a5271a723d15d9604a,611e07ecdcc96256ae8d5b80,611e6e8877b9bceaf5212eb1,0.482,
,,,,space,,0,75,75,21,1,J, , , , ,space,1500,1.5,Stephen,001,2021-08-19_15h46.14.183,natb3,2021.2.3,MacIntel,58.82352941,611d98a5271a723d15d9604a,611e07ecdcc96256ae8d5b80,611e6e8877b9bceaf5212eb1,0.449,
,,,,space,,0,76,76,204,1,Z, , , , ,space,2000,2,Stephen,001,2021-08-19_15h46.14.183,natb3,2021.2.3,MacIntel,58.82352941,611d98a5271a723d15d9604a,611e07ecdcc96256ae8d5b80,611e6e8877b9bceaf5212eb1,0.555,
,,,,space,,0,77,77,176,1,N, , , , ,space,1500,1.5,Stephen,001,2021-08-19_15h46.14.183,natb3,2021.2.3,MacIntel,58.82352941,611d98a5271a723d15d9604a,611e07ecdcc96256ae8d5b80,611e6e8877b9bceaf5212eb1,0.472,
,,,,,,0,78,78,291,1,X, , , , ,,2000,2,Stephen,001,2021-08-19_15h46.14.183,natb3,2021.2.3,MacIntel,58.82352941,611d98a5271a723d15d9604a,611e07ecdcc96256ae8d5b80,611e6e8877b9bceaf5212eb1,,
,,,,space,,0,79,79,328,1,R, , , , ,space,1500,1.5,Stephen,001,2021-08-19_15h46.14.183,natb3,2021.2.3,MacIntel,58.82352941,611d98a5271a723d15d9604a,611e07ecdcc96256ae8d5b80,611e6e8877b9bceaf5212eb1,0.43,
,,,,,,0,80,80,93,1,X,5, ,7, ,,2500,2.5,Stephen,001,2021-08-19_15h46.14.183,natb3,2021.2.3,MacIntel,58.82352941,611d98a5271a723d15d9604a,611e07ecdcc96256ae8d5b80,611e6e8877b9bceaf5212eb1,,
,,,,space,,0,81,81,156,1,P, , , , ,space,1500,1.5,Stephen,001,2021-08-19_15h46.14.183,natb3,2021.2.3,MacIntel,58.82352941,611d98a5271a723d15d9604a,611e07ecdcc96256ae8d5b80,611e6e8877b9bceaf5212eb1,0.459,
,,,,,,0,82,82,66,1,X, ,4,7, ,,2000,2,Stephen,001,2021-08-19_15h46.14.183,natb3,2021.2.3,MacIntel,58.82352941,611d98a5271a723d15d9604a,611e07ecdcc96256ae8d5b80,611e6e8877b9bceaf5212eb1,,
,,,,,,0,83,83,46,1,X, , , , ,,2000,2,Stephen,001,2021-08-19_15h46.14.183,natb3,2021.2.3,MacIntel,58.82352941,611d98a5271a723d15d9604a,611e07ecdcc96256ae8d5b80,611e6e8877b9bceaf5212eb1,,
,,,,space,,0,84,84,68,1,W, , , , ,space,2500,2.5,Stephen,001,2021-08-19_15h46.14.183,natb3,2021.2.3,MacIntel,58.82352941,611d98a5271a723d15d9604a,611e07ecdcc96256ae8d5b80,611e6e8877b9bceaf5212eb1,0.505,
,,,,space,,0,85,85,56,1,J, , , , ,space,1500,1.5,Stephen,001,2021-08-19_15h46.14.183,natb3,2021.2.3,MacIntel,58.82352941,611d98a5271a723d15d9604a,611e07ecdcc96256ae8d5b80,611e6e8877b9bceaf5212eb1,0.681,
,,,,space,,0,86,86,304,1,S, , , , ,space,2000,2,Stephen,001,2021-08-19_15h46.14.183,natb3,2021.2.3,MacIntel,58.82352941,611d98a5271a723d15d9604a,611e07ecdcc96256ae8d5b80,611e6e8877b9bceaf5212eb1,0.513,
,,,,space,,0,87,87,173,1,V, , , , ,space,1500,1.5,Stephen,001,2021-08-19_15h46.14.183,natb3,2021.2.3,MacIntel,58.82352941,611d98a5271a723d15d9604a,611e07ecdcc96256ae8d5b80,611e6e8877b9bceaf5212eb1,0.438,
,,,,space,,0,88,88,290,1,W, , , , ,space,1500,1.5,Stephen,001,2021-08-19_15h46.14.183,natb3,2021.2.3,MacIntel,58.82352941,611d98a5271a723d15d9604a,611e07ecdcc96256ae8d5b80,611e6e8877b9bceaf5212eb1,0.567,
,,,,space,,0,89,89,198,1,H, , , , ,space,2500,2.5,Stephen,001,2021-08-19_15h46.14.183,natb3,2021.2.3,MacIntel,58.82352941,611d98a5271a723d15d9604a,611e07ecdcc96256ae8d5b80,611e6e8877b9bceaf5212eb1,0.402,
,,,,space,,0,90,90,134,1,J, , , , ,space,2000,2,Stephen,001,2021-08-19_15h46.14.183,natb3,2021.2.3,MacIntel,58.82352941,611d98a5271a723d15d9604a,611e07ecdcc96256ae8d5b80,611e6e8877b9bceaf5212eb1,0.522,
,,,,space,,0,91,91,234,1,P, , , , ,space,2000,2,Stephen,001,2021-08-19_15h46.14.183,natb3,2021.2.3,MacIntel,58.82352941,611d98a5271a723d15d9604a,611e07ecdcc96256ae8d5b80,611e6e8877b9bceaf5212eb1,0.464,
,,,,space,,0,92,92,152,1,U, , , , ,space,2000,2,Stephen,001,2021-08-19_15h46.14.183,natb3,2021.2.3,MacIntel,58.82352941,611d98a5271a723d15d9604a,611e07ecdcc96256ae8d5b80,611e6e8877b9bceaf5212eb1,0.548,
,,,,space,,0,93,93,24,1,L, , , , ,space,2500,2.5,Stephen,001,2021-08-19_15h46.14.183,natb3,2021.2.3,MacIntel,58.82352941,611d98a5271a723d15d9604a,611e07ecdcc96256ae8d5b80,611e6e8877b9bceaf5212eb1,0.58,
,,,,,,0,94,94,78,1,X, , , , ,,2000,2,Stephen,001,2021-08-19_15h46.14.183,natb3,2021.2.3,MacIntel,58.82352941,611d98a5271a723d15d9604a,611e07ecdcc96256ae8d5b80,611e6e8877b9bceaf5212eb1,,
,,,,,,0,95,95,23,1,X,1, ,5, ,,2000,2,Stephen,001,2021-08-19_15h46.14.183,natb3,2021.2.3,MacIntel,58.82352941,611d98a5271a723d15d9604a,611e07ecdcc96256ae8d5b80,611e6e8877b9bceaf5212eb1,,
,,,,space,,0,96,96,157,1,A, , , , ,space,2500,2.5,Stephen,001,2021-08-19_15h46.14.183,natb3,2021.2.3,MacIntel,58.82352941,611d98a5271a723d15d9604a,611e07ecdcc96256ae8d5b80,611e6e8877b9bceaf5212eb1,0.433,
,,,,space,,0,97,97,149,1,R, , , , ,space,2000,2,Stephen,001,2021-08-19_15h46.14.183,natb3,2021.2.3,MacIntel,58.82352941,611d98a5271a723d15d9604a,611e07ecdcc96256ae8d5b80,611e6e8877b9bceaf5212eb1,0.457,
,,,,space,,0,98,98,0,1,Q, , , , ,space,1500,1.5,Stephen,001,2021-08-19_15h46.14.183,natb3,2021.2.3,MacIntel,58.82352941,611d98a5271a723d15d9604a,611e07ecdcc96256ae8d5b80,611e6e8877b9bceaf5212eb1,0.454,
,,,,space,,0,99,99,292,1,E, , , , ,space,2000,2,Stephen,001,2021-08-19_15h46.14.183,natb3,2021.2.3,MacIntel,58.82352941,611d98a5271a723d15d9604a,611e07ecdcc96256ae8d5b80,611e6e8877b9bceaf5212eb1,0.475,
,,,,space,,0,100,100,112,1,Q, , , , ,space,2500,2.5,Stephen,001,2021-08-19_15h46.14.183,natb3,2021.2.3,MacIntel,58.82352941,611d98a5271a723d15d9604a,611e07ecdcc96256ae8d5b80,611e6e8877b9bceaf5212eb1,0.421,
,,,,,,0,101,101,98,1,X, , , , ,,2500,2.5,Stephen,001,2021-08-19_15h46.14.183,natb3,2021.2.3,MacIntel,58.82352941,611d98a5271a723d15d9604a,611e07ecdcc96256ae8d5b80,611e6e8877b9bceaf5212eb1,,
,,,,space,,0,102,102,17,1,F, , , , ,space,2500,2.5,Stephen,001,2021-08-19_15h46.14.183,natb3,2021.2.3,MacIntel,58.82352941,611d98a5271a723d15d9604a,611e07ecdcc96256ae8d5b80,611e6e8877b9bceaf5212eb1,0.69,
,,,,space,,0,103,103,130,1,F, , , , ,space,2000,2,Stephen,001,2021-08-19_15h46.14.183,natb3,2021.2.3,MacIntel,58.82352941,611d98a5271a723d15d9604a,611e07ecdcc96256ae8d5b80,611e6e8877b9bceaf5212eb1,0.385,
,,,,space,,0,104,104,180,1,W, , , , ,space,2000,2,Stephen,001,2021-08-19_15h46.14.183,natb3,2021.2.3,MacIntel,58.82352941,611d98a5271a723d15d9604a,611e07ecdcc96256ae8d5b80,611e6e8877b9bceaf5212eb1,0.698,
,,,,space,,0,105,105,226,1,R, , , , ,space,2000,2,Stephen,001,2021-08-19_15h46.14.183,natb3,2021.2.3,MacIntel,58.82352941,611d98a5271a723d15d9604a,611e07ecdcc96256ae8d5b80,611e6e8877b9bceaf5212eb1,0.454,
,,,,space,,0,106,106,334,1,O, , , , ,space,1500,1.5,Stephen,001,2021-08-19_15h46.14.183,natb3,2021.2.3,MacIntel,58.82352941,611d98a5271a723d15d9604a,611e07ecdcc96256ae8d5b80,611e6e8877b9bceaf5212eb1,0.733,
,,,,,,0,107,107,118,1,X, , , , ,,2000,2,Stephen,001,2021-08-19_15h46.14.183,natb3,2021.2.3,MacIntel,58.82352941,611d98a5271a723d15d9604a,611e07ecdcc96256ae8d5b80,611e6e8877b9bceaf5212eb1,,
,,,,space,,0,108,108,42,1,U, , , , ,space,1500,1.5,Stephen,001,2021-08-19_15h46.14.183,natb3,2021.2.3,MacIntel,58.82352941,611d98a5271a723d15d9604a,611e07ecdcc96256ae8d5b80,611e6e8877b9bceaf5212eb1,0.43,
,,,,space,,0,109,109,90,1,K, , , , ,space,2000,2,Stephen,001,2021-08-19_15h46.14.183,natb3,2021.2.3,MacIntel,58.82352941,611d98a5271a723d15d9604a,611e07ecdcc96256ae8d5b80,611e6e8877b9bceaf5212eb1,0.508,
,,,,space,,0,110,110,167,1,K, , , , ,space,1500,1.5,Stephen,001,2021-08-19_15h46.14.183,natb3,2021.2.3,MacIntel,58.82352941,611d98a5271a723d15d9604a,611e07ecdcc96256ae8d5b80,611e6e8877b9bceaf5212eb1,0.518,
,,,,space,,0,111,111,53,1,G, , , , ,space,2500,2.5,Stephen,001,2021-08-19_15h46.14.183,natb3,2021.2.3,MacIntel,58.82352941,611d98a5271a723d15d9604a,611e07ecdcc96256ae8d5b80,611e6e8877b9bceaf5212eb1,0.432,
,,,,space,,0,112,112,169,1,L, , , , ,space,2500,2.5,Stephen,001,2021-08-19_15h46.14.183,natb3,2021.2.3,MacIntel,58.82352941,611d98a5271a723d15d9604a,611e07ecdcc96256ae8d5b80,611e6e8877b9bceaf5212eb1,0.441,
,,,,,,0,113,113,329,1,X,3,4, ,2,,2500,2.5,Stephen,001,2021-08-19_15h46.14.183,natb3,2021.2.3,MacIntel,58.82352941,611d98a5271a723d15d9604a,611e07ecdcc96256ae8d5b80,611e6e8877b9bceaf5212eb1,,
,,,,space,,0,114,114,240,1,F, , , , ,space,2500,2.5,Stephen,001,2021-08-19_15h46.14.183,natb3,2021.2.3,MacIntel,58.82352941,611d98a5271a723d15d9604a,611e07ecdcc96256ae8d5b80,611e6e8877b9bceaf5212eb1,0.392,
,,,,space,,0,115,115,146,1,W, , , , ,space,1500,1.5,Stephen,001,2021-08-19_15h46.14.183,natb3,2021.2.3,MacIntel,58.82352941,611d98a5271a723d15d9604a,611e07ecdcc96256ae8d5b80,611e6e8877b9bceaf5212eb1,0.731,
,,,,space,,0,116,116,227,1,T, , , , ,space,1500,1.5,Stephen,001,2021-08-19_15h46.14.183,natb3,2021.2.3,MacIntel,58.82352941,611d98a5271a723d15d9604a,611e07ecdcc96256ae8d5b80,611e6e8877b9bceaf5212eb1,0.433,
,,,,space,,0,117,117,47,1,P, , , , ,space,2000,2,Stephen,001,2021-08-19_15h46.14.183,natb3,2021.2.3,MacIntel,58.82352941,611d98a5271a723d15d9604a,611e07ecdcc96256ae8d5b80,611e6e8877b9bceaf5212eb1,0.388,
,,,,space,,0,118,118,143,1,M, , , , ,space,2500,2.5,Stephen,001,2021-08-19_15h46.14.183,natb3,2021.2.3,MacIntel,58.82352941,611d98a5271a723d15d9604a,611e07ecdcc96256ae8d5b80,611e6e8877b9bceaf5212eb1,0.416,
,,,,space,,0,119,119,119,1,Y, , , , ,space,2500,2.5,Stephen,001,2021-08-19_15h46.14.183,natb3,2021.2.3,MacIntel,58.82352941,611d98a5271a723d15d9604a,611e07ecdcc96256ae8d5b80,611e6e8877b9bceaf5212eb1,0.425,
,,,,,,0,120,120,39,1,X,6,2, , ,,1500,1.5,Stephen,001,2021-08-19_15h46.14.183,natb3,2021.2.3,MacIntel,58.82352941,611d98a5271a723d15d9604a,611e07ecdcc96256ae8d5b80,611e6e8877b9bceaf5212eb1,,
,,,,space,,0,121,121,52,1,F, , , , ,space,1500,1.5,Stephen,001,2021-08-19_15h46.14.183,natb3,2021.2.3,MacIntel,58.82352941,611d98a5271a723d15d9604a,611e07ecdcc96256ae8d5b80,611e6e8877b9bceaf5212eb1,0.363,
,,,,space,,0,122,122,194,1,D, , , , ,space,2000,2,Stephen,001,2021-08-19_15h46.14.183,natb3,2021.2.3,MacIntel,58.82352941,611d98a5271a723d15d9604a,611e07ecdcc96256ae8d5b80,611e6e8877b9bceaf5212eb1,0.398,
,,,,space,,0,123,123,223,1,Q, , , , ,space,2000,2,Stephen,001,2021-08-19_15h46.14.183,natb3,2021.2.3,MacIntel,58.82352941,611d98a5271a723d15d9604a,611e07ecdcc96256ae8d5b80,611e6e8877b9bceaf5212eb1,0.44,
,,,,,,0,124,124,129,1,X,2,3,5, ,,1500,1.5,Stephen,001,2021-08-19_15h46.14.183,natb3,2021.2.3,MacIntel,58.82352941,611d98a5271a723d15d9604a,611e07ecdcc96256ae8d5b80,611e6e8877b9bceaf5212eb1,,
,,,,,,0,125,125,7,1,X, , , , ,,1500,1.5,Stephen,001,2021-08-19_15h46.14.183,natb3,2021.2.3,MacIntel,58.82352941,611d98a5271a723d15d9604a,611e07ecdcc96256ae8d5b80,611e6e8877b9bceaf5212eb1,,
,,,,space,,0,126,126,127,1,S, , , , ,space,2500,2.5,Stephen,001,2021-08-19_15h46.14.183,natb3,2021.2.3,MacIntel,58.82352941,611d98a5271a723d15d9604a,611e07ecdcc96256ae8d5b80,611e6e8877b9bceaf5212eb1,0.429,
,,,,space,,0,127,127,297,1,U, , , , ,space,2000,2,Stephen,001,2021-08-19_15h46.14.183,natb3,2021.2.3,MacIntel,58.82352941,611d98a5271a723d15d9604a,611e07ecdcc96256ae8d5b80,611e6e8877b9bceaf5212eb1,0.415,
,,,,space,,0,128,128,125,1,X, , , , ,,2000,2,Stephen,001,2021-08-19_15h46.14.183,natb3,2021.2.3,MacIntel,58.82352941,611d98a5271a723d15d9604a,611e07ecdcc96256ae8d5b80,611e6e8877b9bceaf5212eb1,0.34,
,,,,,,0,129,129,171,1,X, , , , ,,1500,1.5,Stephen,001,2021-08-19_15h46.14.183,natb3,2021.2.3,MacIntel,58.82352941,611d98a5271a723d15d9604a,611e07ecdcc96256ae8d5b80,611e6e8877b9bceaf5212eb1,,
,,,,,,0,130,130,287,1,X, ,2, ,9,,2000,2,Stephen,001,2021-08-19_15h46.14.183,natb3,2021.2.3,MacIntel,58.82352941,611d98a5271a723d15d9604a,611e07ecdcc96256ae8d5b80,611e6e8877b9bceaf5212eb1,,
,,,,space,,0,131,131,306,1,D, , , , ,space,2000,2,Stephen,001,2021-08-19_15h46.14.183,natb3,2021.2.3,MacIntel,58.82352941,611d98a5271a723d15d9604a,611e07ecdcc96256ae8d5b80,611e6e8877b9bceaf5212eb1,0.419,
,,,,space,,0,132,132,44,1,I, , , , ,space,2500,2.5,Stephen,001,2021-08-19_15h46.14.183,natb3,2021.2.3,MacIntel,58.82352941,611d98a5271a723d15d9604a,611e07ecdcc96256ae8d5b80,611e6e8877b9bceaf5212eb1,0.464,
,,,,space,,0,133,133,196,1,F, , , , ,space,1500,1.5,Stephen,001,2021-08-19_15h46.14.183,natb3,2021.2.3,MacIntel,58.82352941,611d98a5271a723d15d9604a,611e07ecdcc96256ae8d5b80,611e6e8877b9bceaf5212eb1,0.55,
,,,,space,,0,134,134,212,1,Q, , , , ,space,2500,2.5,Stephen,001,2021-08-19_15h46.14.183,natb3,2021.2.3,MacIntel,58.82352941,611d98a5271a723d15d9604a,611e07ecdcc96256ae8d5b80,611e6e8877b9bceaf5212eb1,0.37,
,,,,space,,0,135,135,216,1,R, , , , ,space,1500,1.5,Stephen,001,2021-08-19_15h46.14.183,natb3,2021.2.3,MacIntel,58.82352941,611d98a5271a723d15d9604a,611e07ecdcc96256ae8d5b80,611e6e8877b9bceaf5212eb1,0.571,
,,,,space,,0,136,136,300,1,O, , , , ,space,2500,2.5,Stephen,001,2021-08-19_15h46.14.183,natb3,2021.2.3,MacIntel,58.82352941,611d98a5271a723d15d9604a,611e07ecdcc96256ae8d5b80,611e6e8877b9bceaf5212eb1,0.382,
,,,,space,,0,137,137,197,1,G, , , , ,space,2500,2.5,Stephen,001,2021-08-19_15h46.14.183,natb3,2021.2.3,MacIntel,58.82352941,611d98a5271a723d15d9604a,611e07ecdcc96256ae8d5b80,611e6e8877b9bceaf5212eb1,0.381,
,,,,space,,0,138,138,124,1,P, , , , ,space,2000,2,Stephen,001,2021-08-19_15h46.14.183,natb3,2021.2.3,MacIntel,58.82352941,611d98a5271a723d15d9604a,611e07ecdcc96256ae8d5b80,611e6e8877b9bceaf5212eb1,0.333,
,,,,space,,0,139,139,265,1,I, , , , ,space,2000,2,Stephen,001,2021-08-19_15h46.14.183,natb3,2021.2.3,MacIntel,58.82352941,611d98a5271a723d15d9604a,611e07ecdcc96256ae8d5b80,611e6e8877b9bceaf5212eb1,0.464,
,,,,space,,0,140,140,210,1,M, , , , ,space,1500,1.5,Stephen,001,2021-08-19_15h46.14.183,natb3,2021.2.3,MacIntel,58.82352941,611d98a5271a723d15d9604a,611e07ecdcc96256ae8d5b80,611e6e8877b9bceaf5212eb1,0.45,
,,,,space,,0,141,141,201,1,K, , , , ,space,1500,1.5,Stephen,001,2021-08-19_15h46.14.183,natb3,2021.2.3,MacIntel,58.82352941,611d98a5271a723d15d9604a,611e07ecdcc96256ae8d5b80,611e6e8877b9bceaf5212eb1,0.382,
,,,,space,,0,142,142,45,1,O, , , , ,space,2000,2,Stephen,001,2021-08-19_15h46.14.183,natb3,2021.2.3,MacIntel,58.82352941,611d98a5271a723d15d9604a,611e07ecdcc96256ae8d5b80,611e6e8877b9bceaf5212eb1,0.307,
,,,,space,,0,143,143,284,1,V, , , , ,space,2500,2.5,Stephen,001,2021-08-19_15h46.14.183,natb3,2021.2.3,MacIntel,58.82352941,611d98a5271a723d15d9604a,611e07ecdcc96256ae8d5b80,611e6e8877b9bceaf5212eb1,0.474,
,,,,space,,0,144,144,254,1,M, , , , ,space,1500,1.5,Stephen,001,2021-08-19_15h46.14.183,natb3,2021.2.3,MacIntel,58.82352941,611d98a5271a723d15d9604a,611e07ecdcc96256ae8d5b80,611e6e8877b9bceaf5212eb1,0.39,
,,,,space,,0,145,145,257,1,W, , , , ,space,2000,2,Stephen,001,2021-08-19_15h46.14.183,natb3,2021.2.3,MacIntel,58.82352941,611d98a5271a723d15d9604a,611e07ecdcc96256ae8d5b80,611e6e8877b9bceaf5212eb1,0.616,
,,,,,,0,146,146,313,1,X, , , , ,,2500,2.5,Stephen,001,2021-08-19_15h46.14.183,natb3,2021.2.3,MacIntel,58.82352941,611d98a5271a723d15d9604a,611e07ecdcc96256ae8d5b80,611e6e8877b9bceaf5212eb1,,
,,,,,,0,147,147,43,1,X, ,6, ,2,,2500,2.5,Stephen,001,2021-08-19_15h46.14.183,natb3,2021.2.3,MacIntel,58.82352941,611d98a5271a723d15d9604a,611e07ecdcc96256ae8d5b80,611e6e8877b9bceaf5212eb1,,
,,,,space,,0,148,148,320,1,B, , , , ,space,1500,1.5,Stephen,001,2021-08-19_15h46.14.183,natb3,2021.2.3,MacIntel,58.82352941,611d98a5271a723d15d9604a,611e07ecdcc96256ae8d5b80,611e6e8877b9bceaf5212eb1,0.377,
,,,,space,,0,149,149,241,1,G, , , , ,space,2500,2.5,Stephen,001,2021-08-19_15h46.14.183,natb3,2021.2.3,MacIntel,58.82352941,611d98a5271a723d15d9604a,611e07ecdcc96256ae8d5b80,611e6e8877b9bceaf5212eb1,0.531,
,,,,space,,0,150,150,101,1,Q, , , , ,space,2500,2.5,Stephen,001,2021-08-19_15h46.14.183,natb3,2021.2.3,MacIntel,58.82352941,611d98a5271a723d15d9604a,611e07ecdcc96256ae8d5b80,611e6e8877b9bceaf5212eb1,0.405,
,,,,space,,0,151,151,239,1,X, , , , ,,2000,2,Stephen,001,2021-08-19_15h46.14.183,natb3,2021.2.3,MacIntel,58.82352941,611d98a5271a723d15d9604a,611e07ecdcc96256ae8d5b80,611e6e8877b9bceaf5212eb1,0.372,
,,,,space,,0,152,152,139,1,V, , , , ,space,2000,2,Stephen,001,2021-08-19_15h46.14.183,natb3,2021.2.3,MacIntel,58.82352941,611d98a5271a723d15d9604a,611e07ecdcc96256ae8d5b80,611e6e8877b9bceaf5212eb1,0.44,
,,,,,,0,153,153,191,1,X,1, ,3,4,,2500,2.5,Stephen,001,2021-08-19_15h46.14.183,natb3,2021.2.3,MacIntel,58.82352941,611d98a5271a723d15d9604a,611e07ecdcc96256ae8d5b80,611e6e8877b9bceaf5212eb1,,
,,,,,,0,154,154,102,1,X, ,6, , ,,1500,1.5,Stephen,001,2021-08-19_15h46.14.183,natb3,2021.2.3,MacIntel,58.82352941,611d98a5271a723d15d9604a,611e07ecdcc96256ae8d5b80,611e6e8877b9bceaf5212eb1,,
,,,,space,,0,155,155,160,1,D, , , , ,space,1500,1.5,Stephen,001,2021-08-19_15h46.14.183,natb3,2021.2.3,MacIntel,58.82352941,611d98a5271a723d15d9604a,611e07ecdcc96256ae8d5b80,611e6e8877b9bceaf5212eb1,0.406,
,,,,space,,0,156,156,283,1,C, , , , ,space,1500,1.5,Stephen,001,2021-08-19_15h46.14.183,natb3,2021.2.3,MacIntel,58.82352941,611d98a5271a723d15d9604a,611e07ecdcc96256ae8d5b80,611e6e8877b9bceaf5212eb1,0.496,
,,,,,,0,157,157,89,1,X,3, , , ,,2000,2,Stephen,001,2021-08-19_15h46.14.183,natb3,2021.2.3,MacIntel,58.82352941,611d98a5271a723d15d9604a,611e07ecdcc96256ae8d5b80,611e6e8877b9bceaf5212eb1,,
,,,,space,,0,158,158,279,1,K, , , , ,space,2500,2.5,Stephen,001,2021-08-19_15h46.14.183,natb3,2021.2.3,MacIntel,58.82352941,611d98a5271a723d15d9604a,611e07ecdcc96256ae8d5b80,611e6e8877b9bceaf5212eb1,0.471,
,,,,space,,0,159,159,288,1,M, , , , ,space,1500,1.5,Stephen,001,2021-08-19_15h46.14.183,natb3,2021.2.3,MacIntel,58.82352941,611d98a5271a723d15d9604a,611e07ecdcc96256ae8d5b80,611e6e8877b9bceaf5212eb1,0.464,
,,,,,,0,160,160,4,1,X, , , , ,,2000,2,Stephen,001,2021-08-19_15h46.14.183,natb3,2021.2.3,MacIntel,58.82352941,611d98a5271a723d15d9604a,611e07ecdcc96256ae8d5b80,611e6e8877b9bceaf5212eb1,,
,,,,space,,0,161,161,269,1,A, , , , ,space,2500,2.5,Stephen,001,2021-08-19_15h46.14.183,natb3,2021.2.3,MacIntel,58.82352941,611d98a5271a723d15d9604a,611e07ecdcc96256ae8d5b80,611e6e8877b9bceaf5212eb1,0.472,
,,,,,,0,162,162,182,1,X, , , , ,,1500,1.5,Stephen,001,2021-08-19_15h46.14.183,natb3,2021.2.3,MacIntel,58.82352941,611d98a5271a723d15d9604a,611e07ecdcc96256ae8d5b80,611e6e8877b9bceaf5212eb1,,
,,,,,,0,163,163,187,1,X, ,3,7,4,,1500,1.5,Stephen,001,2021-08-19_15h46.14.183,natb3,2021.2.3,MacIntel,58.82352941,611d98a5271a723d15d9604a,611e07ecdcc96256ae8d5b80,611e6e8877b9bceaf5212eb1,,
,,,,space,,0,164,164,72,1,T, , , , ,space,1500,1.5,Stephen,001,2021-08-19_15h46.14.183,natb3,2021.2.3,MacIntel,58.82352941,611d98a5271a723d15d9604a,611e07ecdcc96256ae8d5b80,611e6e8877b9bceaf5212eb1,0.602,
,,,,space,,0,165,165,105,1,R, , , , ,space,2500,2.5,Stephen,001,2021-08-19_15h46.14.183,natb3,2021.2.3,MacIntel,58.82352941,611d98a5271a723d15d9604a,611e07ecdcc96256ae8d5b80,611e6e8877b9bceaf5212eb1,0.541,
,,,,space,,0,166,166,165,1,J, , , , ,space,2500,2.5,Stephen,001,2021-08-19_15h46.14.183,natb3,2021.2.3,MacIntel,58.82352941,611d98a5271a723d15d9604a,611e07ecdcc96256ae8d5b80,611e6e8877b9bceaf5212eb1,0.668,
,,,,space,space,0,167,167,246,1,L, , , , ,space,2500,2.5,Stephen,001,2021-08-19_15h46.14.183,natb3,2021.2.3,MacIntel,58.82352941,611d98a5271a723d15d9604a,611e07ecdcc96256ae8d5b80,611e6e8877b9bceaf5212eb1,0.463,14.809
,,,,space,,0,168,168,192,1,A, , , , ,space,2000,2,Stephen,001,2021-08-19_15h46.14.183,natb3,2021.2.3,MacIntel,58.82352941,611d98a5271a723d15d9604a,611e07ecdcc96256ae8d5b80,611e6e8877b9bceaf5212eb1,0.432,
,,,,space,,0,169,169,170,1,Z, , , , ,space,2000,2,Stephen,001,2021-08-19_15h46.14.183,natb3,2021.2.3,MacIntel,58.82352941,611d98a5271a723d15d9604a,611e07ecdcc96256ae8d5b80,611e6e8877b9bceaf5212eb1,0.388,
,,,,space,,0,170,170,281,1,Z, , , , ,space,1500,1.5,Stephen,001,2021-08-19_15h46.14.183,natb3,2021.2.3,MacIntel,58.82352941,611d98a5271a723d15d9604a,611e07ecdcc96256ae8d5b80,611e6e8877b9bceaf5212eb1,0.457,
,,,,space,,0,171,171,220,1,U, , , , ,space,2500,2.5,Stephen,001,2021-08-19_15h46.14.183,natb3,2021.2.3,MacIntel,58.82352941,611d98a5271a723d15d9604a,611e07ecdcc96256ae8d5b80,611e6e8877b9bceaf5212eb1,0.396,
,,,,space,,0,172,172,280,1,L, , , , ,space,1500,1.5,Stephen,001,2021-08-19_15h46.14.183,natb3,2021.2.3,MacIntel,58.82352941,611d98a5271a723d15d9604a,611e07ecdcc96256ae8d5b80,611e6e8877b9bceaf5212eb1,0.799,
,,,,space,,0,173,173,94,1,C, , , , ,space,2000,2,Stephen,001,2021-08-19_15h46.14.183,natb3,2021.2.3,MacIntel,58.82352941,611d98a5271a723d15d9604a,611e07ecdcc96256ae8d5b80,611e6e8877b9bceaf5212eb1,0.37,
,,,,space,,0,174,174,296,1,Y, , , , ,space,2500,2.5,Stephen,001,2021-08-19_15h46.14.183,natb3,2021.2.3,MacIntel,58.82352941,611d98a5271a723d15d9604a,611e07ecdcc96256ae8d5b80,611e6e8877b9bceaf5212eb1,0.415,
,,,,space,,0,175,175,115,1,R, , , , ,space,1500,1.5,Stephen,001,2021-08-19_15h46.14.183,natb3,2021.2.3,MacIntel,58.82352941,611d98a5271a723d15d9604a,611e07ecdcc96256ae8d5b80,611e6e8877b9bceaf5212eb1,0.455,
,,,,,,0,176,176,315,1,X, , , , ,,2500,2.5,Stephen,001,2021-08-19_15h46.14.183,natb3,2021.2.3,MacIntel,58.82352941,611d98a5271a723d15d9604a,611e07ecdcc96256ae8d5b80,611e6e8877b9bceaf5212eb1,,
,,,,space,,0,177,177,14,1,S, , , , ,space,2500,2.5,Stephen,001,2021-08-19_15h46.14.183,natb3,2021.2.3,MacIntel,58.82352941,611d98a5271a723d15d9604a,611e07ecdcc96256ae8d5b80,611e6e8877b9bceaf5212eb1,0.456,
,,,,space,,0,178,178,166,1,X, , , , ,,2000,2,Stephen,001,2021-08-19_15h46.14.183,natb3,2021.2.3,MacIntel,58.82352941,611d98a5271a723d15d9604a,611e07ecdcc96256ae8d5b80,611e6e8877b9bceaf5212eb1,0.42,
,,,,space,,0,179,179,319,1,V, , , , ,space,2000,2,Stephen,001,2021-08-19_15h46.14.183,natb3,2021.2.3,MacIntel,58.82352941,611d98a5271a723d15d9604a,611e07ecdcc96256ae8d5b80,611e6e8877b9bceaf5212eb1,0.489,
,,,,space,,0,180,180,274,1,F, , , , ,space,2000,2,Stephen,001,2021-08-19_15h46.14.183,natb3,2021.2.3,MacIntel,58.82352941,611d98a5271a723d15d9604a,611e07ecdcc96256ae8d5b80,611e6e8877b9bceaf5212eb1,0.471,
,,,,space,,0,181,181,321,1,N, , , , ,space,2000,2,Stephen,001,2021-08-19_15h46.14.183,natb3,2021.2.3,MacIntel,58.82352941,611d98a5271a723d15d9604a,611e07ecdcc96256ae8d5b80,611e6e8877b9bceaf5212eb1,0.553,
,,,,space,,0,182,182,5,1,T, , , , ,space,2000,2,Stephen,001,2021-08-19_15h46.14.183,natb3,2021.2.3,MacIntel,58.82352941,611d98a5271a723d15d9604a,611e07ecdcc96256ae8d5b80,611e6e8877b9bceaf5212eb1,0.589,
,,,,space,,0,183,183,111,1,O, , , , ,space,2000,2,Stephen,001,2021-08-19_15h46.14.183,natb3,2021.2.3,MacIntel,58.82352941,611d98a5271a723d15d9604a,611e07ecdcc96256ae8d5b80,611e6e8877b9bceaf5212eb1,0.506,
,,,,space,,0,184,184,232,1,O, , , , ,space,2500,2.5,Stephen,001,2021-08-19_15h46.14.183,natb3,2021.2.3,MacIntel,58.82352941,611d98a5271a723d15d9604a,611e07ecdcc96256ae8d5b80,611e6e8877b9bceaf5212eb1,0.427,
,,,,,,0,185,185,218,1,X,1,3, ,8,,1500,1.5,Stephen,001,2021-08-19_15h46.14.183,natb3,2021.2.3,MacIntel,58.82352941,611d98a5271a723d15d9604a,611e07ecdcc96256ae8d5b80,611e6e8877b9bceaf5212eb1,,
,,,,space,,0,186,186,249,1,C, , , , ,space,2000,2,Stephen,001,2021-08-19_15h46.14.183,natb3,2021.2.3,MacIntel,58.82352941,611d98a5271a723d15d9604a,611e07ecdcc96256ae8d5b80,611e6e8877b9bceaf5212eb1,0.45,
,,,,space,,0,187,187,214,1,W, , , , ,space,2000,2,Stephen,001,2021-08-19_15h46.14.183,natb3,2021.2.3,MacIntel,58.82352941,611d98a5271a723d15d9604a,611e07ecdcc96256ae8d5b80,611e6e8877b9bceaf5212eb1,0.556,
,,,,space,,0,188,188,172,1,C, , , , ,space,1500,1.5,Stephen,001,2021-08-19_15h46.14.183,natb3,2021.2.3,MacIntel,58.82352941,611d98a5271a723d15d9604a,611e07ecdcc96256ae8d5b80,611e6e8877b9bceaf5212eb1,0.504,
,,,,space,,0,189,189,301,1,P, , , , ,space,1500,1.5,Stephen,001,2021-08-19_15h46.14.183,natb3,2021.2.3,MacIntel,58.82352941,611d98a5271a723d15d9604a,611e07ecdcc96256ae8d5b80,611e6e8877b9bceaf5212eb1,0.675,
,,,,space,,0,190,190,13,1,A, , , , ,space,2000,2,Stephen,001,2021-08-19_15h46.14.183,natb3,2021.2.3,MacIntel,58.82352941,611d98a5271a723d15d9604a,611e07ecdcc96256ae8d5b80,611e6e8877b9bceaf5212eb1,0.564,
,,,,space,,0,191,191,108,1,Y, , , , ,space,2500,2.5,Stephen,001,2021-08-19_15h46.14.183,natb3,2021.2.3,MacIntel,58.82352941,611d98a5271a723d15d9604a,611e07ecdcc96256ae8d5b80,611e6e8877b9bceaf5212eb1,0.676,
,,,,,,0,192,192,84,1,X, , , , ,,2000,2,Stephen,001,2021-08-19_15h46.14.183,natb3,2021.2.3,MacIntel,58.82352941,611d98a5271a723d15d9604a,611e07ecdcc96256ae8d5b80,611e6e8877b9bceaf5212eb1,,
,,,,space,,0,193,193,147,1,E, , , , ,space,2000,2,Stephen,001,2021-08-19_15h46.14.183,natb3,2021.2.3,MacIntel,58.82352941,611d98a5271a723d15d9604a,611e07ecdcc96256ae8d5b80,611e6e8877b9bceaf5212eb1,0.565,
,,,,space,,0,194,194,9,1,I, , , , ,space,1500,1.5,Stephen,001,2021-08-19_15h46.14.183,natb3,2021.2.3,MacIntel,58.82352941,611d98a5271a723d15d9604a,611e07ecdcc96256ae8d5b80,611e6e8877b9bceaf5212eb1,0.641,
,,,,space,,0,195,195,278,1,J, , , , ,space,2000,2,Stephen,001,2021-08-19_15h46.14.183,natb3,2021.2.3,MacIntel,58.82352941,611d98a5271a723d15d9604a,611e07ecdcc96256ae8d5b80,611e6e8877b9bceaf5212eb1,0.608,
,,,,,,0,196,196,203,1,X, , , , ,,2500,2.5,Stephen,001,2021-08-19_15h46.14.183,natb3,2021.2.3,MacIntel,58.82352941,611d98a5271a723d15d9604a,611e07ecdcc96256ae8d5b80,611e6e8877b9bceaf5212eb1,,
,,,,space,,0,197,197,238,1,D, , , , ,space,1500,1.5,Stephen,001,2021-08-19_15h46.14.183,natb3,2021.2.3,MacIntel,58.82352941,611d98a5271a723d15d9604a,611e07ecdcc96256ae8d5b80,611e6e8877b9bceaf5212eb1,0.507,
,,,,space,,0,198,198,199,1,J, , , , ,space,2500,2.5,Stephen,001,2021-08-19_15h46.14.183,natb3,2021.2.3,MacIntel,58.82352941,611d98a5271a723d15d9604a,611e07ecdcc96256ae8d5b80,611e6e8877b9bceaf5212eb1,0.491,
,,,,space,,0,199,199,244,1,J, , , , ,space,1500,1.5,Stephen,001,2021-08-19_15h46.14.183,natb3,2021.2.3,MacIntel,58.82352941,611d98a5271a723d15d9604a,611e07ecdcc96256ae8d5b80,611e6e8877b9bceaf5212eb1,0.627,
,,,,space,,0,200,200,37,1,E, , , , ,space,2500,2.5,Stephen,001,2021-08-19_15h46.14.183,natb3,2021.2.3,MacIntel,58.82352941,611d98a5271a723d15d9604a,611e07ecdcc96256ae8d5b80,611e6e8877b9bceaf5212eb1,0.489,
,,,,,,0,201,201,107,1,X,9,3, ,2,,2000,2,Stephen,001,2021-08-19_15h46.14.183,natb3,2021.2.3,MacIntel,58.82352941,611d98a5271a723d15d9604a,611e07ecdcc96256ae8d5b80,611e6e8877b9bceaf5212eb1,,
,,,,space,,0,202,202,85,1,F, , , , ,space,2500,2.5,Stephen,001,2021-08-19_15h46.14.183,natb3,2021.2.3,MacIntel,58.82352941,611d98a5271a723d15d9604a,611e07ecdcc96256ae8d5b80,611e6e8877b9bceaf5212eb1,0.475,
,,,,space,,0,203,203,206,1,V, , , , ,space,2000,2,Stephen,001,2021-08-19_15h46.14.183,natb3,2021.2.3,MacIntel,58.82352941,611d98a5271a723d15d9604a,611e07ecdcc96256ae8d5b80,611e6e8877b9bceaf5212eb1,0.538,
,,,,space,,0,204,204,140,1,B, , , , ,space,2500,2.5,Stephen,001,2021-08-19_15h46.14.183,natb3,2021.2.3,MacIntel,58.82352941,611d98a5271a723d15d9604a,611e07ecdcc96256ae8d5b80,611e6e8877b9bceaf5212eb1,0.651,
,,,,space,,0,205,205,106,1,T, , , , ,space,1500,1.5,Stephen,001,2021-08-19_15h46.14.183,natb3,2021.2.3,MacIntel,58.82352941,611d98a5271a723d15d9604a,611e07ecdcc96256ae8d5b80,611e6e8877b9bceaf5212eb1,0.658,
,,,,space,,0,206,206,275,1,G, , , , ,space,1500,1.5,Stephen,001,2021-08-19_15h46.14.183,natb3,2021.2.3,MacIntel,58.82352941,611d98a5271a723d15d9604a,611e07ecdcc96256ae8d5b80,611e6e8877b9bceaf5212eb1,0.497,
,,,,,,0,207,207,175,1,X,7, ,4,2,,1500,1.5,Stephen,001,2021-08-19_15h46.14.183,natb3,2021.2.3,MacIntel,58.82352941,611d98a5271a723d15d9604a,611e07ecdcc96256ae8d5b80,611e6e8877b9bceaf5212eb1,,
,,,,space,,0,208,208,83,1,D, , , , ,space,2000,2,Stephen,001,2021-08-19_15h46.14.183,natb3,2021.2.3,MacIntel,58.82352941,611d98a5271a723d15d9604a,611e07ecdcc96256ae8d5b80,611e6e8877b9bceaf5212eb1,0.508,
,,,,,,0,209,209,138,1,X,8,5, ,3,,2000,2,Stephen,001,2021-08-19_15h46.14.183,natb3,2021.2.3,MacIntel,58.82352941,611d98a5271a723d15d9604a,611e07ecdcc96256ae8d5b80,611e6e8877b9bceaf5212eb1,,
,,,,,,0,210,210,282,1,X, , , , ,,2500,2.5,Stephen,001,2021-08-19_15h46.14.183,natb3,2021.2.3,MacIntel,58.82352941,611d98a5271a723d15d9604a,611e07ecdcc96256ae8d5b80,611e6e8877b9bceaf5212eb1,,
,,,,,,0,211,211,318,1,X, , , , ,,1500,1.5,Stephen,001,2021-08-19_15h46.14.183,natb3,2021.2.3,MacIntel,58.82352941,611d98a5271a723d15d9604a,611e07ecdcc96256ae8d5b80,611e6e8877b9bceaf5212eb1,,
,,,,space,,0,212,212,73,1,Y, , , , ,space,2000,2,Stephen,001,2021-08-19_15h46.14.183,natb3,2021.2.3,MacIntel,58.82352941,611d98a5271a723d15d9604a,611e07ecdcc96256ae8d5b80,611e6e8877b9bceaf5212eb1,0.564,
,,,,space,,0,213,213,19,1,G, , , , ,space,1500,1.5,Stephen,001,2021-08-19_15h46.14.183,natb3,2021.2.3,MacIntel,58.82352941,611d98a5271a723d15d9604a,611e07ecdcc96256ae8d5b80,611e6e8877b9bceaf5212eb1,0.622,
,,,,,,0,214,214,54,1,X, , , , ,,2000,2,Stephen,001,2021-08-19_15h46.14.183,natb3,2021.2.3,MacIntel,58.82352941,611d98a5271a723d15d9604a,611e07ecdcc96256ae8d5b80,611e6e8877b9bceaf5212eb1,,
,,,,space,,0,215,215,245,1,K, , , , ,space,2000,2,Stephen,001,2021-08-19_15h46.14.183,natb3,2021.2.3,MacIntel,58.82352941,611d98a5271a723d15d9604a,611e07ecdcc96256ae8d5b80,611e6e8877b9bceaf5212eb1,0.538,
,,,,,,0,216,216,123,1,O, , , , ,space,1500,1.5,Stephen,001,2021-08-19_15h46.14.183,natb3,2021.2.3,MacIntel,58.82352941,611d98a5271a723d15d9604a,611e07ecdcc96256ae8d5b80,611e6e8877b9bceaf5212eb1,,
,,,,space,,0,217,217,150,1,T, , , , ,space,2500,2.5,Stephen,001,2021-08-19_15h46.14.183,natb3,2021.2.3,MacIntel,58.82352941,611d98a5271a723d15d9604a,611e07ecdcc96256ae8d5b80,611e6e8877b9bceaf5212eb1,0.53,
,,,,space,,0,218,218,326,1,W, , , , ,space,2000,2,Stephen,001,2021-08-19_15h46.14.183,natb3,2021.2.3,MacIntel,58.82352941,611d98a5271a723d15d9604a,611e07ecdcc96256ae8d5b80,611e6e8877b9bceaf5212eb1,0.455,
,,,,space,,0,219,219,86,1,G, , , , ,space,2000,2,Stephen,001,2021-08-19_15h46.14.183,natb3,2021.2.3,MacIntel,58.82352941,611d98a5271a723d15d9604a,611e07ecdcc96256ae8d5b80,611e6e8877b9bceaf5212eb1,0.486,
,,,,space,,0,220,220,208,1,B, , , , ,space,1500,1.5,Stephen,001,2021-08-19_15h46.14.183,natb3,2021.2.3,MacIntel,58.82352941,611d98a5271a723d15d9604a,611e07ecdcc96256ae8d5b80,611e6e8877b9bceaf5212eb1,0.483,
,,,,space,,0,221,221,267,1,P, , , , ,space,2000,2,Stephen,001,2021-08-19_15h46.14.183,natb3,2021.2.3,MacIntel,58.82352941,611d98a5271a723d15d9604a,611e07ecdcc96256ae8d5b80,611e6e8877b9bceaf5212eb1,0.48,
,,,,space,,0,222,222,181,1,E, , , , ,space,1500,1.5,Stephen,001,2021-08-19_15h46.14.183,natb3,2021.2.3,MacIntel,58.82352941,611d98a5271a723d15d9604a,611e07ecdcc96256ae8d5b80,611e6e8877b9bceaf5212eb1,0.481,
,,,,space,,0,223,223,131,1,G, , , , ,space,1500,1.5,Stephen,001,2021-08-19_15h46.14.183,natb3,2021.2.3,MacIntel,58.82352941,611d98a5271a723d15d9604a,611e07ecdcc96256ae8d5b80,611e6e8877b9bceaf5212eb1,0.433,
,,,,,,0,224,224,179,1,X, ,9, ,2,,1500,1.5,Stephen,001,2021-08-19_15h46.14.183,natb3,2021.2.3,MacIntel,58.82352941,611d98a5271a723d15d9604a,611e07ecdcc96256ae8d5b80,611e6e8877b9bceaf5212eb1,,
,,,,space,,0,225,225,29,1,B, , , , ,space,1500,1.5,Stephen,001,2021-08-19_15h46.14.183,natb3,2021.2.3,MacIntel,58.82352941,611d98a5271a723d15d9604a,611e07ecdcc96256ae8d5b80,611e6e8877b9bceaf5212eb1,0.326,
,,,,space,,0,226,226,219,1,Y, , , , ,space,2000,2,Stephen,001,2021-08-19_15h46.14.183,natb3,2021.2.3,MacIntel,58.82352941,611d98a5271a723d15d9604a,611e07ecdcc96256ae8d5b80,611e6e8877b9bceaf5212eb1,0.496,
,,,,space,,0,227,227,135,1,K, , , , ,space,1500,1.5,Stephen,001,2021-08-19_15h46.14.183,natb3,2021.2.3,MacIntel,58.82352941,611d98a5271a723d15d9604a,611e07ecdcc96256ae8d5b80,611e6e8877b9bceaf5212eb1,0.465,
,,,,,,0,228,228,145,1,X, , , , ,,2000,2,Stephen,001,2021-08-19_15h46.14.183,natb3,2021.2.3,MacIntel,58.82352941,611d98a5271a723d15d9604a,611e07ecdcc96256ae8d5b80,611e6e8877b9bceaf5212eb1,,
,,,,space,,0,229,229,224,1,W, , , , ,space,1500,1.5,Stephen,001,2021-08-19_15h46.14.183,natb3,2021.2.3,MacIntel,58.82352941,611d98a5271a723d15d9604a,611e07ecdcc96256ae8d5b80,611e6e8877b9bceaf5212eb1,0.456,
,,,,space,,0,230,230,294,1,T, , , , ,space,2000,2,Stephen,001,2021-08-19_15h46.14.183,natb3,2021.2.3,MacIntel,58.82352941,611d98a5271a723d15d9604a,611e07ecdcc96256ae8d5b80,611e6e8877b9bceaf5212eb1,0.622,
,,,,space,,0,231,231,225,1,E, , , , ,space,2000,2,Stephen,001,2021-08-19_15h46.14.183,natb3,2021.2.3,MacIntel,58.82352941,611d98a5271a723d15d9604a,611e07ecdcc96256ae8d5b80,611e6e8877b9bceaf5212eb1,0.471,
,,,,space,,0,232,232,251,1,B, , , , ,space,1500,1.5,Stephen,001,2021-08-19_15h46.14.183,natb3,2021.2.3,MacIntel,58.82352941,611d98a5271a723d15d9604a,611e07ecdcc96256ae8d5b80,611e6e8877b9bceaf5212eb1,0.514,
,,,,space,,0,233,233,81,1,S, , , , ,space,2000,2,Stephen,001,2021-08-19_15h46.14.183,natb3,2021.2.3,MacIntel,58.82352941,611d98a5271a723d15d9604a,611e07ecdcc96256ae8d5b80,611e6e8877b9bceaf5212eb1,0.468,
,,,,space,,0,234,234,61,1,C, , , , ,space,2000,2,Stephen,001,2021-08-19_15h46.14.183,natb3,2021.2.3,MacIntel,58.82352941,611d98a5271a723d15d9604a,611e07ecdcc96256ae8d5b80,611e6e8877b9bceaf5212eb1,0.404,
,,,,space,,0,235,235,222,1,O, , , , ,space,2000,2,Stephen,001,2021-08-19_15h46.14.183,natb3,2021.2.3,MacIntel,58.82352941,611d98a5271a723d15d9604a,611e07ecdcc96256ae8d5b80,611e6e8877b9bceaf5212eb1,0.457,
,,,,,,0,236,236,158,1,X, , , , ,,1500,1.5,Stephen,001,2021-08-19_15h46.14.183,natb3,2021.2.3,MacIntel,58.82352941,611d98a5271a723d15d9604a,611e07ecdcc96256ae8d5b80,611e6e8877b9bceaf5212eb1,,
,,,,,,0,237,237,255,1,X, , , , ,,1500,1.5,Stephen,001,2021-08-19_15h46.14.183,natb3,2021.2.3,MacIntel,58.82352941,611d98a5271a723d15d9604a,611e07ecdcc96256ae8d5b80,611e6e8877b9bceaf5212eb1,,
,,,,space,,0,238,238,228,1,Y, , , , ,space,2000,2,Stephen,001,2021-08-19_15h46.14.183,natb3,2021.2.3,MacIntel,58.82352941,611d98a5271a723d15d9604a,611e07ecdcc96256ae8d5b80,611e6e8877b9bceaf5212eb1,0.467,
,,,,space,,0,239,239,231,1,I, , , , ,space,2500,2.5,Stephen,001,2021-08-19_15h46.14.183,natb3,2021.2.3,MacIntel,58.82352941,611d98a5271a723d15d9604a,611e07ecdcc96256ae8d5b80,611e6e8877b9bceaf5212eb1,0.499,
,,,,space,,0,240,240,71,1,R, , , , ,space,2500,2.5,Stephen,001,2021-08-19_15h46.14.183,natb3,2021.2.3,MacIntel,58.82352941,611d98a5271a723d15d9604a,611e07ecdcc96256ae8d5b80,611e6e8877b9bceaf5212eb1,0.85,
,,,,space,,0,241,241,186,1,U, , , , ,space,2500,2.5,Stephen,001,2021-08-19_15h46.14.183,natb3,2021.2.3,MacIntel,58.82352941,611d98a5271a723d15d9604a,611e07ecdcc96256ae8d5b80,611e6e8877b9bceaf5212eb1,0.455,
,,,,space,,0,242,242,205,1,C, , , , ,space,2000,2,Stephen,001,2021-08-19_15h46.14.183,natb3,2021.2.3,MacIntel,58.82352941,611d98a5271a723d15d9604a,611e07ecdcc96256ae8d5b80,611e6e8877b9bceaf5212eb1,0.415,
,,,,space,,0,243,243,298,1,I, , , , ,space,2000,2,Stephen,001,2021-08-19_15h46.14.183,natb3,2021.2.3,MacIntel,58.82352941,611d98a5271a723d15d9604a,611e07ecdcc96256ae8d5b80,611e6e8877b9bceaf5212eb1,0.675,
,,,,space,,0,244,244,312,1,K, , , , ,space,2000,2,Stephen,001,2021-08-19_15h46.14.183,natb3,2021.2.3,MacIntel,58.82352941,611d98a5271a723d15d9604a,611e07ecdcc96256ae8d5b80,611e6e8877b9bceaf5212eb1,0.567,
,,,,,,0,245,245,271,1,X, , , , ,,2500,2.5,Stephen,001,2021-08-19_15h46.14.183,natb3,2021.2.3,MacIntel,58.82352941,611d98a5271a723d15d9604a,611e07ecdcc96256ae8d5b80,611e6e8877b9bceaf5212eb1,,
,,,,,,0,246,246,69,1,X, , , , ,,1500,1.5,Stephen,001,2021-08-19_15h46.14.183,natb3,2021.2.3,MacIntel,58.82352941,611d98a5271a723d15d9604a,611e07ecdcc96256ae8d5b80,611e6e8877b9bceaf5212eb1,,
,,,,space,,0,247,247,65,1,M, , , , ,space,1500,1.5,Stephen,001,2021-08-19_15h46.14.183,natb3,2021.2.3,MacIntel,58.82352941,611d98a5271a723d15d9604a,611e07ecdcc96256ae8d5b80,611e6e8877b9bceaf5212eb1,0.565,
,,,,,,0,248,248,153,1,X,4,7, ,6,,2000,2,Stephen,001,2021-08-19_15h46.14.183,natb3,2021.2.3,MacIntel,58.82352941,611d98a5271a723d15d9604a,611e07ecdcc96256ae8d5b80,611e6e8877b9bceaf5212eb1,,
,,,,space,,0,249,249,178,1,Q, , , , ,space,1500,1.5,Stephen,001,2021-08-19_15h46.14.183,natb3,2021.2.3,MacIntel,58.82352941,611d98a5271a723d15d9604a,611e07ecdcc96256ae8d5b80,611e6e8877b9bceaf5212eb1,0.411,
,,,,,,0,250,250,141,1,X,1, ,4,6,,1500,1.5,Stephen,001,2021-08-19_15h46.14.183,natb3,2021.2.3,MacIntel,58.82352941,611d98a5271a723d15d9604a,611e07ecdcc96256ae8d5b80,611e6e8877b9bceaf5212eb1,,
,,,,space,,0,251,251,34,1,Q, , , , ,space,2500,2.5,Stephen,001,2021-08-19_15h46.14.183,natb3,2021.2.3,MacIntel,58.82352941,611d98a5271a723d15d9604a,611e07ecdcc96256ae8d5b80,611e6e8877b9bceaf5212eb1,0.442,
,,,,,,0,252,252,236,1,X,3, ,4,7,,2500,2.5,Stephen,001,2021-08-19_15h46.14.183,natb3,2021.2.3,MacIntel,58.82352941,611d98a5271a723d15d9604a,611e07ecdcc96256ae8d5b80,611e6e8877b9bceaf5212eb1,,
,,,,,,0,253,253,31,1,X, , , , ,,1500,1.5,Stephen,001,2021-08-19_15h46.14.183,natb3,2021.2.3,MacIntel,58.82352941,611d98a5271a723d15d9604a,611e07ecdcc96256ae8d5b80,611e6e8877b9bceaf5212eb1,,
,,,,space,,0,254,254,209,1,N, , , , ,space,2000,2,Stephen,001,2021-08-19_15h46.14.183,natb3,2021.2.3,MacIntel,58.82352941,611d98a5271a723d15d9604a,611e07ecdcc96256ae8d5b80,611e6e8877b9bceaf5212eb1,0.448,
,,,,space,,0,255,255,155,1,O, , , , ,space,1500,1.5,Stephen,001,2021-08-19_15h46.14.183,natb3,2021.2.3,MacIntel,58.82352941,611d98a5271a723d15d9604a,611e07ecdcc96256ae8d5b80,611e6e8877b9bceaf5212eb1,0.531,
,,,,,,0,256,256,302,1,X, , , , ,,2000,2,Stephen,001,2021-08-19_15h46.14.183,natb3,2021.2.3,MacIntel,58.82352941,611d98a5271a723d15d9604a,611e07ecdcc96256ae8d5b80,611e6e8877b9bceaf5212eb1,,
,,,,space,,0,257,257,230,1,U, , , , ,space,1500,1.5,Stephen,001,2021-08-19_15h46.14.183,natb3,2021.2.3,MacIntel,58.82352941,611d98a5271a723d15d9604a,611e07ecdcc96256ae8d5b80,611e6e8877b9bceaf5212eb1,0.473,
,,,,space,,0,258,258,237,1,S, , , , ,space,1500,1.5,Stephen,001,2021-08-19_15h46.14.183,natb3,2021.2.3,MacIntel,58.82352941,611d98a5271a723d15d9604a,611e07ecdcc96256ae8d5b80,611e6e8877b9bceaf5212eb1,0.453,
,,,,space,,0,259,259,103,1,W, , , , ,space,2000,2,Stephen,001,2021-08-19_15h46.14.183,natb3,2021.2.3,MacIntel,58.82352941,611d98a5271a723d15d9604a,611e07ecdcc96256ae8d5b80,611e6e8877b9bceaf5212eb1,0.365,
,,,,space,,0,260,260,49,1,S, , , , ,space,1500,1.5,Stephen,001,2021-08-19_15h46.14.183,natb3,2021.2.3,MacIntel,58.82352941,611d98a5271a723d15d9604a,611e07ecdcc96256ae8d5b80,611e6e8877b9bceaf5212eb1,0.374,
,,,,space,,0,261,261,188,1,I, , , , ,space,2500,2.5,Stephen,001,2021-08-19_15h46.14.183,natb3,2021.2.3,MacIntel,58.82352941,611d98a5271a723d15d9604a,611e07ecdcc96256ae8d5b80,611e6e8877b9bceaf5212eb1,0.407,
,,,,space,,0,262,262,260,1,R, , , , ,space,2000,2,Stephen,001,2021-08-19_15h46.14.183,natb3,2021.2.3,MacIntel,58.82352941,611d98a5271a723d15d9604a,611e07ecdcc96256ae8d5b80,611e6e8877b9bceaf5212eb1,0.564,
,,,,,,0,263,263,277,1,X,8,5, ,2,,2000,2,Stephen,001,2021-08-19_15h46.14.183,natb3,2021.2.3,MacIntel,58.82352941,611d98a5271a723d15d9604a,611e07ecdcc96256ae8d5b80,611e6e8877b9bceaf5212eb1,,
,,,,,,0,264,264,96,1,X, , , , ,,1500,1.5,Stephen,001,2021-08-19_15h46.14.183,natb3,2021.2.3,MacIntel,58.82352941,611d98a5271a723d15d9604a,611e07ecdcc96256ae8d5b80,611e6e8877b9bceaf5212eb1,,
,,,,,,0,265,265,259,1,X,8, , ,3,,2500,2.5,Stephen,001,2021-08-19_15h46.14.183,natb3,2021.2.3,MacIntel,58.82352941,611d98a5271a723d15d9604a,611e07ecdcc96256ae8d5b80,611e6e8877b9bceaf5212eb1,,
,,,,,,0,266,266,299,1,X, , , , ,,2500,2.5,Stephen,001,2021-08-19_15h46.14.183,natb3,2021.2.3,MacIntel,58.82352941,611d98a5271a723d15d9604a,611e07ecdcc96256ae8d5b80,611e6e8877b9bceaf5212eb1,,
,,,,,,0,267,267,82,1,X,4,6,1,7,,2000,2,Stephen,001,2021-08-19_15h46.14.183,natb3,2021.2.3,MacIntel,58.82352941,611d98a5271a723d15d9604a,611e07ecdcc96256ae8d5b80,611e6e8877b9bceaf5212eb1,,
,,,,space,,0,268,268,113,1,W, , , , ,space,2500,2.5,Stephen,001,2021-08-19_15h46.14.183,natb3,2021.2.3,MacIntel,58.82352941,611d98a5271a723d15d9604a,611e07ecdcc96256ae8d5b80,611e6e8877b9bceaf5212eb1,0.509,
,,,,space,,0,269,269,202,1,L, , , , ,space,2500,2.5,Stephen,001,2021-08-19_15h46.14.183,natb3,2021.2.3,MacIntel,58.82352941,611d98a5271a723d15d9604a,611e07ecdcc96256ae8d5b80,611e6e8877b9bceaf5212eb1,0.406,
,,,,space,,0,270,270,217,1,T, , , , ,space,2500,2.5,Stephen,001,2021-08-19_15h46.14.183,natb3,2021.2.3,MacIntel,58.82352941,611d98a5271a723d15d9604a,611e07ecdcc96256ae8d5b80,611e6e8877b9bceaf5212eb1,0.397,
,,,,space,,0,271,271,261,1,T, , , , ,space,2000,2,Stephen,001,2021-08-19_15h46.14.183,natb3,2021.2.3,MacIntel,58.82352941,611d98a5271a723d15d9604a,611e07ecdcc96256ae8d5b80,611e6e8877b9bceaf5212eb1,0.535,
,,,,space,,0,272,272,270,1,S, , , , ,space,1500,1.5,Stephen,001,2021-08-19_15h46.14.183,natb3,2021.2.3,MacIntel,58.82352941,611d98a5271a723d15d9604a,611e07ecdcc96256ae8d5b80,611e6e8877b9bceaf5212eb1,0.554,
,,,,,,0,273,273,211,1,X, , , , ,,2500,2.5,Stephen,001,2021-08-19_15h46.14.183,natb3,2021.2.3,MacIntel,58.82352941,611d98a5271a723d15d9604a,611e07ecdcc96256ae8d5b80,611e6e8877b9bceaf5212eb1,,
,,,,space,,0,274,274,87,1,H, , , , ,space,1500,1.5,Stephen,001,2021-08-19_15h46.14.183,natb3,2021.2.3,MacIntel,58.82352941,611d98a5271a723d15d9604a,611e07ecdcc96256ae8d5b80,611e6e8877b9bceaf5212eb1,0.455,
,,,,,,0,275,275,273,1,X, , , , ,,2000,2,Stephen,001,2021-08-19_15h46.14.183,natb3,2021.2.3,MacIntel,58.82352941,611d98a5271a723d15d9604a,611e07ecdcc96256ae8d5b80,611e6e8877b9bceaf5212eb1,,
,,,,,,0,276,276,162,1,X,1,6, ,2,,1500,1.5,Stephen,001,2021-08-19_15h46.14.183,natb3,2021.2.3,MacIntel,58.82352941,611d98a5271a723d15d9604a,611e07ecdcc96256ae8d5b80,611e6e8877b9bceaf5212eb1,,
,,,,space,,0,277,277,62,1,V, , , , ,space,1500,1.5,Stephen,001,2021-08-19_15h46.14.183,natb3,2021.2.3,MacIntel,58.82352941,611d98a5271a723d15d9604a,611e07ecdcc96256ae8d5b80,611e6e8877b9bceaf5212eb1,0.451,
,,,,space,,0,278,278,327,1,E, , , , ,space,1500,1.5,Stephen,001,2021-08-19_15h46.14.183,natb3,2021.2.3,MacIntel,58.82352941,611d98a5271a723d15d9604a,611e07ecdcc96256ae8d5b80,611e6e8877b9bceaf5212eb1,0.715,
,,,,space,,0,279,279,285,1,B, , , , ,space,1500,1.5,Stephen,001,2021-08-19_15h46.14.183,natb3,2021.2.3,MacIntel,58.82352941,611d98a5271a723d15d9604a,611e07ecdcc96256ae8d5b80,611e6e8877b9bceaf5212eb1,0.583,
,,,,,,0,280,280,252,1,X,3, ,6,9,,2000,2,Stephen,001,2021-08-19_15h46.14.183,natb3,2021.2.3,MacIntel,58.82352941,611d98a5271a723d15d9604a,611e07ecdcc96256ae8d5b80,611e6e8877b9bceaf5212eb1,,
,,,,space,,0,281,281,3,1,R, , , , ,space,2000,2,Stephen,001,2021-08-19_15h46.14.183,natb3,2021.2.3,MacIntel,58.82352941,611d98a5271a723d15d9604a,611e07ecdcc96256ae8d5b80,611e6e8877b9bceaf5212eb1,0.702,
,,,,space,,0,282,282,247,1,Z, , , , ,space,1500,1.5,Stephen,001,2021-08-19_15h46.14.183,natb3,2021.2.3,MacIntel,58.82352941,611d98a5271a723d15d9604a,611e07ecdcc96256ae8d5b80,611e6e8877b9bceaf5212eb1,0.48,
,,,,,,0,283,283,15,1,X, , , , ,,1500,1.5,Stephen,001,2021-08-19_15h46.14.183,natb3,2021.2.3,MacIntel,58.82352941,611d98a5271a723d15d9604a,611e07ecdcc96256ae8d5b80,611e6e8877b9bceaf5212eb1,,
,,,,space,,0,284,284,11,1,P, , , , ,space,2500,2.5,Stephen,001,2021-08-19_15h46.14.183,natb3,2021.2.3,MacIntel,58.82352941,611d98a5271a723d15d9604a,611e07ecdcc96256ae8d5b80,611e6e8877b9bceaf5212eb1,0.398,
,,,,,,0,285,285,148,1,X, , , , ,,2000,2,Stephen,001,2021-08-19_15h46.14.183,natb3,2021.2.3,MacIntel,58.82352941,611d98a5271a723d15d9604a,611e07ecdcc96256ae8d5b80,611e6e8877b9bceaf5212eb1,,
,,,,space,,0,286,286,67,1,Q, , , , ,space,2000,2,Stephen,001,2021-08-19_15h46.14.183,natb3,2021.2.3,MacIntel,58.82352941,611d98a5271a723d15d9604a,611e07ecdcc96256ae8d5b80,611e6e8877b9bceaf5212eb1,0.465,
,,,,space,,0,287,287,22,1,K, , , , ,space,2000,2,Stephen,001,2021-08-19_15h46.14.183,natb3,2021.2.3,MacIntel,58.82352941,611d98a5271a723d15d9604a,611e07ecdcc96256ae8d5b80,611e6e8877b9bceaf5212eb1,0.384,
,,,,space,,0,288,288,104,1,E, , , , ,space,2000,2,Stephen,001,2021-08-19_15h46.14.183,natb3,2021.2.3,MacIntel,58.82352941,611d98a5271a723d15d9604a,611e07ecdcc96256ae8d5b80,611e6e8877b9bceaf5212eb1,0.481,
,,,,,,0,289,289,122,1,X,1, , ,8,,1500,1.5,Stephen,001,2021-08-19_15h46.14.183,natb3,2021.2.3,MacIntel,58.82352941,611d98a5271a723d15d9604a,611e07ecdcc96256ae8d5b80,611e6e8877b9bceaf5212eb1,,
,,,,space,,0,290,290,75,1,U, , , , ,space,1500,1.5,Stephen,001,2021-08-19_15h46.14.183,natb3,2021.2.3,MacIntel,58.82352941,611d98a5271a723d15d9604a,611e07ecdcc96256ae8d5b80,611e6e8877b9bceaf5212eb1,0.396,
,,,,,,0,291,291,263,1,X,4, ,6, ,,1500,1.5,Stephen,001,2021-08-19_15h46.14.183,natb3,2021.2.3,MacIntel,58.82352941,611d98a5271a723d15d9604a,611e07ecdcc96256ae8d5b80,611e6e8877b9bceaf5212eb1,,
,,,,,,0,292,292,311,1,X,1,2,7,3,,2500,2.5,Stephen,001,2021-08-19_15h46.14.183,natb3,2021.2.3,MacIntel,58.82352941,611d98a5271a723d15d9604a,611e07ecdcc96256ae8d5b80,611e6e8877b9bceaf5212eb1,,
,,,,,,0,293,293,213,1,X, , , , ,,2500,2.5,Stephen,001,2021-08-19_15h46.14.183,natb3,2021.2.3,MacIntel,58.82352941,611d98a5271a723d15d9604a,611e07ecdcc96256ae8d5b80,611e6e8877b9bceaf5212eb1,,
,,,,space,,0,294,294,286,1,N, , , , ,space,1500,1.5,Stephen,001,2021-08-19_15h46.14.183,natb3,2021.2.3,MacIntel,58.82352941,611d98a5271a723d15d9604a,611e07ecdcc96256ae8d5b80,611e6e8877b9bceaf5212eb1,0.451,
,,,,space,,0,295,295,79,1,P, , , , ,space,2000,2,Stephen,001,2021-08-19_15h46.14.183,natb3,2021.2.3,MacIntel,58.82352941,611d98a5271a723d15d9604a,611e07ecdcc96256ae8d5b80,611e6e8877b9bceaf5212eb1,0.507,
,,,,space,,0,296,296,215,1,E, , , , ,space,2500,2.5,Stephen,001,2021-08-19_15h46.14.183,natb3,2021.2.3,MacIntel,58.82352941,611d98a5271a723d15d9604a,611e07ecdcc96256ae8d5b80,611e6e8877b9bceaf5212eb1,0.438,
,,,,space,,0,297,297,221,1,I, , , , ,space,2500,2.5,Stephen,001,2021-08-19_15h46.14.183,natb3,2021.2.3,MacIntel,58.82352941,611d98a5271a723d15d9604a,611e07ecdcc96256ae8d5b80,611e6e8877b9bceaf5212eb1,0.608,
,,,,space,,0,298,298,161,1,F, , , , ,space,1500,1.5,Stephen,001,2021-08-19_15h46.14.183,natb3,2021.2.3,MacIntel,58.82352941,611d98a5271a723d15d9604a,611e07ecdcc96256ae8d5b80,611e6e8877b9bceaf5212eb1,0.606,
,,,,space,,0,299,299,28,1,V, , , , ,space,1500,1.5,Stephen,001,2021-08-19_15h46.14.183,natb3,2021.2.3,MacIntel,58.82352941,611d98a5271a723d15d9604a,611e07ecdcc96256ae8d5b80,611e6e8877b9bceaf5212eb1,0.389,
,,,,space,,0,300,300,276,1,H, , , , ,space,2000,2,Stephen,001,2021-08-19_15h46.14.183,natb3,2021.2.3,MacIntel,58.82352941,611d98a5271a723d15d9604a,611e07ecdcc96256ae8d5b80,611e6e8877b9bceaf5212eb1,0.438,
,,,,space,,0,301,301,63,1,B, , , , ,space,2000,2,Stephen,001,2021-08-19_15h46.14.183,natb3,2021.2.3,MacIntel,58.82352941,611d98a5271a723d15d9604a,611e07ecdcc96256ae8d5b80,611e6e8877b9bceaf5212eb1,0.355,
,,,,,,0,302,302,74,1,X, ,4,3,2,,1500,1.5,Stephen,001,2021-08-19_15h46.14.183,natb3,2021.2.3,MacIntel,58.82352941,611d98a5271a723d15d9604a,611e07ecdcc96256ae8d5b80,611e6e8877b9bceaf5212eb1,,
,,,,space,,0,303,303,250,1,V, , , , ,space,2000,2,Stephen,001,2021-08-19_15h46.14.183,natb3,2021.2.3,MacIntel,58.82352941,611d98a5271a723d15d9604a,611e07ecdcc96256ae8d5b80,611e6e8877b9bceaf5212eb1,0.363,
,,,,space,,0,304,304,77,1,O, , , , ,space,2000,2,Stephen,001,2021-08-19_15h46.14.183,natb3,2021.2.3,MacIntel,58.82352941,611d98a5271a723d15d9604a,611e07ecdcc96256ae8d5b80,611e6e8877b9bceaf5212eb1,0.474,
,,,,space,,0,305,305,100,1,M, , , , ,space,2000,2,Stephen,001,2021-08-19_15h46.14.183,natb3,2021.2.3,MacIntel,58.82352941,611d98a5271a723d15d9604a,611e07ecdcc96256ae8d5b80,611e6e8877b9bceaf5212eb1,0.389,
,,,,space,,0,306,306,325,1,X, , , , ,,2500,2.5,Stephen,001,2021-08-19_15h46.14.183,natb3,2021.2.3,MacIntel,58.82352941,611d98a5271a723d15d9604a,611e07ecdcc96256ae8d5b80,611e6e8877b9bceaf5212eb1,0.423,
,,,,space,,0,307,307,40,1,T, , , , ,space,1500,1.5,Stephen,001,2021-08-19_15h46.14.183,natb3,2021.2.3,MacIntel,58.82352941,611d98a5271a723d15d9604a,611e07ecdcc96256ae8d5b80,611e6e8877b9bceaf5212eb1,0.382,
,,,,,,0,308,308,27,1,X,5, ,1,3,,1500,1.5,Stephen,001,2021-08-19_15h46.14.183,natb3,2021.2.3,MacIntel,58.82352941,611d98a5271a723d15d9604a,611e07ecdcc96256ae8d5b80,611e6e8877b9bceaf5212eb1,,
,,,,,,0,309,309,33,1,X, , , , ,,1500,1.5,Stephen,001,2021-08-19_15h46.14.183,natb3,2021.2.3,MacIntel,58.82352941,611d98a5271a723d15d9604a,611e07ecdcc96256ae8d5b80,611e6e8877b9bceaf5212eb1,,
,,,,space,,0,310,310,193,1,S, , , , ,space,2500,2.5,Stephen,001,2021-08-19_15h46.14.183,natb3,2021.2.3,MacIntel,58.82352941,611d98a5271a723d15d9604a,611e07ecdcc96256ae8d5b80,611e6e8877b9bceaf5212eb1,0.441,
,,,,space,,0,311,311,50,1,D, , , , ,space,1500,1.5,Stephen,001,2021-08-19_15h46.14.183,natb3,2021.2.3,MacIntel,58.82352941,611d98a5271a723d15d9604a,611e07ecdcc96256ae8d5b80,611e6e8877b9bceaf5212eb1,0.447,
,,,,space,,0,312,312,331,1,Y, , , , ,space,2500,2.5,Stephen,001,2021-08-19_15h46.14.183,natb3,2021.2.3,MacIntel,58.82352941,611d98a5271a723d15d9604a,611e07ecdcc96256ae8d5b80,611e6e8877b9bceaf5212eb1,0.501,
,,,,,,0,313,313,335,1,P,,,,,space,1500,1.5,Stephen,001,2021-08-19_15h46.14.183,natb3,2021.2.3,MacIntel,58.82352941,611d98a5271a723d15d9604a,611e07ecdcc96256ae8d5b80,611e6e8877b9bceaf5212eb1,,
,,,,space,,0,314,314,109,1,U, , , , ,space,1500,1.5,Stephen,001,2021-08-19_15h46.14.183,natb3,2021.2.3,MacIntel,58.82352941,611d98a5271a723d15d9604a,611e07ecdcc96256ae8d5b80,611e6e8877b9bceaf5212eb1,0.43,
,,,,space,,0,315,315,309,1,H, , , , ,space,2500,2.5,Stephen,001,2021-08-19_15h46.14.183,natb3,2021.2.3,MacIntel,58.82352941,611d98a5271a723d15d9604a,611e07ecdcc96256ae8d5b80,611e6e8877b9bceaf5212eb1,0.397,
,,,,space,,0,316,316,144,1,Q, , , , ,space,2500,2.5,Stephen,001,2021-08-19_15h46.14.183,natb3,2021.2.3,MacIntel,58.82352941,611d98a5271a723d15d9604a,611e07ecdcc96256ae8d5b80,611e6e8877b9bceaf5212eb1,0.423,
,,,,space,,0,317,317,293,1,R, , , , ,space,2500,2.5,Stephen,001,2021-08-19_15h46.14.183,natb3,2021.2.3,MacIntel,58.82352941,611d98a5271a723d15d9604a,611e07ecdcc96256ae8d5b80,611e6e8877b9bceaf5212eb1,0.405,
,,,,space,,0,318,318,6,1,Y, , , , ,space,2500,2.5,Stephen,001,2021-08-19_15h46.14.183,natb3,2021.2.3,MacIntel,58.82352941,611d98a5271a723d15d9604a,611e07ecdcc96256ae8d5b80,611e6e8877b9bceaf5212eb1,0.469,
,,,,space,,0,319,319,307,1,F, , , , ,space,2500,2.5,Stephen,001,2021-08-19_15h46.14.183,natb3,2021.2.3,MacIntel,58.82352941,611d98a5271a723d15d9604a,611e07ecdcc96256ae8d5b80,611e6e8877b9bceaf5212eb1,0.387,
,,,,space,,0,320,320,151,1,Y, , , , ,space,2500,2.5,Stephen,001,2021-08-19_15h46.14.183,natb3,2021.2.3,MacIntel,58.82352941,611d98a5271a723d15d9604a,611e07ecdcc96256ae8d5b80,611e6e8877b9bceaf5212eb1,0.364,
,,,,,,0,321,321,207,1,X,9, ,2, ,,2500,2.5,Stephen,001,2021-08-19_15h46.14.183,natb3,2021.2.3,MacIntel,58.82352941,611d98a5271a723d15d9604a,611e07ecdcc96256ae8d5b80,611e6e8877b9bceaf5212eb1,,
,,,,,,0,322,322,51,1,X,7,5,8, ,,1500,1.5,Stephen,001,2021-08-19_15h46.14.183,natb3,2021.2.3,MacIntel,58.82352941,611d98a5271a723d15d9604a,611e07ecdcc96256ae8d5b80,611e6e8877b9bceaf5212eb1,,
,,,,space,,0,323,323,99,1,N, , , , ,space,2500,2.5,Stephen,001,2021-08-19_15h46.14.183,natb3,2021.2.3,MacIntel,58.82352941,611d98a5271a723d15d9604a,611e07ecdcc96256ae8d5b80,611e6e8877b9bceaf5212eb1,0.442,
,,,,,,0,324,324,60,1,X,7,3,5, ,,1500,1.5,Stephen,001,2021-08-19_15h46.14.183,natb3,2021.2.3,MacIntel,58.82352941,611d98a5271a723d15d9604a,611e07ecdcc96256ae8d5b80,611e6e8877b9bceaf5212eb1,,
,,,,,,0,325,325,295,1,X,8,7,5, ,,2500,2.5,Stephen,001,2021-08-19_15h46.14.183,natb3,2021.2.3,MacIntel,58.82352941,611d98a5271a723d15d9604a,611e07ecdcc96256ae8d5b80,611e6e8877b9bceaf5212eb1,,
,,,,space,,0,326,326,242,1,H, , , , ,space,2500,2.5,Stephen,001,2021-08-19_15h46.14.183,natb3,2021.2.3,MacIntel,58.82352941,611d98a5271a723d15d9604a,611e07ecdcc96256ae8d5b80,611e6e8877b9bceaf5212eb1,0.494,
,,,,,,0,327,327,248,1,X, ,1,5, ,,1500,1.5,Stephen,001,2021-08-19_15h46.14.183,natb3,2021.2.3,MacIntel,58.82352941,611d98a5271a723d15d9604a,611e07ecdcc96256ae8d5b80,611e6e8877b9bceaf5212eb1,,
,,,,,,0,328,328,243,1,X, , , , ,,2500,2.5,Stephen,001,2021-08-19_15h46.14.183,natb3,2021.2.3,MacIntel,58.82352941,611d98a5271a723d15d9604a,611e07ecdcc96256ae8d5b80,611e6e8877b9bceaf5212eb1,,
,,,,space,,0,329,329,177,1,M, , , , ,space,2500,2.5,Stephen,001,2021-08-19_15h46.14.183,natb3,2021.2.3,MacIntel,58.82352941,611d98a5271a723d15d9604a,611e07ecdcc96256ae8d5b80,611e6e8877b9bceaf5212eb1,0.421,
,,,,space,,0,330,330,308,1,G, , , , ,space,1500,1.5,Stephen,001,2021-08-19_15h46.14.183,natb3,2021.2.3,MacIntel,58.82352941,611d98a5271a723d15d9604a,611e07ecdcc96256ae8d5b80,611e6e8877b9bceaf5212eb1,0.487,
,,,,,,0,331,331,229,1,X,8, ,2,6,,2500,2.5,Stephen,001,2021-08-19_15h46.14.183,natb3,2021.2.3,MacIntel,58.82352941,611d98a5271a723d15d9604a,611e07ecdcc96256ae8d5b80,611e6e8877b9bceaf5212eb1,,
,,,,,,0,332,332,233,1,X, ,2, ,5,,1500,1.5,Stephen,001,2021-08-19_15h46.14.183,natb3,2021.2.3,MacIntel,58.82352941,611d98a5271a723d15d9604a,611e07ecdcc96256ae8d5b80,611e6e8877b9bceaf5212eb1,,
,,,,space,,0,333,333,184,1,T, , , , ,space,2000,2,Stephen,001,2021-08-19_15h46.14.183,natb3,2021.2.3,MacIntel,58.82352941,611d98a5271a723d15d9604a,611e07ecdcc96256ae8d5b80,611e6e8877b9bceaf5212eb1,0.403,
,,,,space,,0,334,334,30,1,N, , , , ,space,2500,2.5,Stephen,001,2021-08-19_15h46.14.183,natb3,2021.2.3,MacIntel,58.82352941,611d98a5271a723d15d9604a,611e07ecdcc96256ae8d5b80,611e6e8877b9bceaf5212eb1,0.372,
,,,,space,,0,335,335,163,1,G, , , , ,space,2500,2.5,Stephen,001,2021-08-19_15h46.14.183,natb3,2021.2.3,MacIntel,58.82352941,611d98a5271a723d15d9604a,611e07ecdcc96256ae8d5b80,611e6e8877b9bceaf5212eb1,0.422,
