key_resp_2.keys,key_resp_2.rt,key_resp_3.keys,key_resp_3.rt,key_resp.keys,key_resp.rt,key_resp_4.keys,trials.thisRepN,trials.thisTrialN,trials.thisN,trials.thisIndex,trials.ran,stimulus,distractor1,distractor2,distractor3,distractor4,CorrAns,isi_duration,isi_dur_in_seconds,participant,session,date,expName,psychopyVersion,OS,frameRate,PROLIFIC_PID,SESSION_ID,STUDY_ID,preview,key_resp_4.rt
return,12.5452,space,3.5979,space,0.5902,,0,0,0,87,1,H, , , , ,space,1500,1.5,tasha1,001,2021-08-17_16h21.27.366,natb3,2021.2.3,Win32,58.5994726,60f71c21c01393248bc25db1,09dp1ryuik3u,6107d0959f7c4c3641818b95,1,
,,,,space,0.6176,,0,1,1,10,1,O, , , , ,space,2000,2,tasha1,001,2021-08-17_16h21.27.366,natb3,2021.2.3,Win32,58.5994726,60f71c21c01393248bc25db1,09dp1ryuik3u,6107d0959f7c4c3641818b95,1,
,,,,space,0.5006,,0,2,2,85,1,F, , , , ,space,2500,2.5,tasha1,001,2021-08-17_16h21.27.366,natb3,2021.2.3,Win32,58.5994726,60f71c21c01393248bc25db1,09dp1ryuik3u,6107d0959f7c4c3641818b95,1,
,,,,space,0.3498,,0,3,3,163,1,G, , , , ,space,2500,2.5,tasha1,001,2021-08-17_16h21.27.366,natb3,2021.2.3,Win32,58.5994726,60f71c21c01393248bc25db1,09dp1ryuik3u,6107d0959f7c4c3641818b95,1,
,,,,space,0.4173,,0,4,4,80,1,A, , , , ,space,2000,2,tasha1,001,2021-08-17_16h21.27.366,natb3,2021.2.3,Win32,58.5994726,60f71c21c01393248bc25db1,09dp1ryuik3u,6107d0959f7c4c3641818b95,1,
,,,,space,0.4343,,0,5,5,208,1,B, , , , ,space,1500,1.5,tasha1,001,2021-08-17_16h21.27.366,natb3,2021.2.3,Win32,58.5994726,60f71c21c01393248bc25db1,09dp1ryuik3u,6107d0959f7c4c3641818b95,1,
,,,,space,0.3666,,0,6,6,145,1,X, , , , ,,2000,2,tasha1,001,2021-08-17_16h21.27.366,natb3,2021.2.3,Win32,58.5994726,60f71c21c01393248bc25db1,09dp1ryuik3u,6107d0959f7c4c3641818b95,1,
,,,,space,0.3522,,0,7,7,50,1,D, , , , ,space,1500,1.5,tasha1,001,2021-08-17_16h21.27.366,natb3,2021.2.3,Win32,58.5994726,60f71c21c01393248bc25db1,09dp1ryuik3u,6107d0959f7c4c3641818b95,1,
,,,,,,,0,8,8,133,1,X, ,4, ,6,,2500,2.5,tasha1,001,2021-08-17_16h21.27.366,natb3,2021.2.3,Win32,58.5994726,60f71c21c01393248bc25db1,09dp1ryuik3u,6107d0959f7c4c3641818b95,1,
,,,,,,,0,9,9,25,1,Z, , , , ,space,2500,2.5,tasha1,001,2021-08-17_16h21.27.366,natb3,2021.2.3,Win32,58.5994726,60f71c21c01393248bc25db1,09dp1ryuik3u,6107d0959f7c4c3641818b95,1,
,,,,,,,0,10,10,35,1,X, , , , ,,2500,2.5,tasha1,001,2021-08-17_16h21.27.366,natb3,2021.2.3,Win32,58.5994726,60f71c21c01393248bc25db1,09dp1ryuik3u,6107d0959f7c4c3641818b95,1,
,,,,,,,0,11,11,310,1,J, , , , ,space,2500,2.5,tasha1,001,2021-08-17_16h21.27.366,natb3,2021.2.3,Win32,58.5994726,60f71c21c01393248bc25db1,09dp1ryuik3u,6107d0959f7c4c3641818b95,1,
,,,,,,,0,12,12,99,1,N, , , , ,space,2500,2.5,tasha1,001,2021-08-17_16h21.27.366,natb3,2021.2.3,Win32,58.5994726,60f71c21c01393248bc25db1,09dp1ryuik3u,6107d0959f7c4c3641818b95,1,
,,,,,,,0,13,13,226,1,R, , , , ,space,2000,2,tasha1,001,2021-08-17_16h21.27.366,natb3,2021.2.3,Win32,58.5994726,60f71c21c01393248bc25db1,09dp1ryuik3u,6107d0959f7c4c3641818b95,1,
,,,,,,,0,14,14,31,1,X, , , , ,,1500,1.5,tasha1,001,2021-08-17_16h21.27.366,natb3,2021.2.3,Win32,58.5994726,60f71c21c01393248bc25db1,09dp1ryuik3u,6107d0959f7c4c3641818b95,1,
,,,,,,,0,15,15,191,1,X,1, ,3,4,,2500,2.5,tasha1,001,2021-08-17_16h21.27.366,natb3,2021.2.3,Win32,58.5994726,60f71c21c01393248bc25db1,09dp1ryuik3u,6107d0959f7c4c3641818b95,1,
,,,,,,,0,16,16,290,1,W, , , , ,space,1500,1.5,tasha1,001,2021-08-17_16h21.27.366,natb3,2021.2.3,Win32,58.5994726,60f71c21c01393248bc25db1,09dp1ryuik3u,6107d0959f7c4c3641818b95,1,
,,,,,,,0,17,17,155,1,O, , , , ,space,1500,1.5,tasha1,001,2021-08-17_16h21.27.366,natb3,2021.2.3,Win32,58.5994726,60f71c21c01393248bc25db1,09dp1ryuik3u,6107d0959f7c4c3641818b95,1,
,,,,,,,0,18,18,20,1,H, , , , ,space,1500,1.5,tasha1,001,2021-08-17_16h21.27.366,natb3,2021.2.3,Win32,58.5994726,60f71c21c01393248bc25db1,09dp1ryuik3u,6107d0959f7c4c3641818b95,1,
,,,,,,,0,19,19,312,1,K, , , , ,space,2000,2,tasha1,001,2021-08-17_16h21.27.366,natb3,2021.2.3,Win32,58.5994726,60f71c21c01393248bc25db1,09dp1ryuik3u,6107d0959f7c4c3641818b95,1,
,,,,,,,0,20,20,103,1,W, , , , ,space,2000,2,tasha1,001,2021-08-17_16h21.27.366,natb3,2021.2.3,Win32,58.5994726,60f71c21c01393248bc25db1,09dp1ryuik3u,6107d0959f7c4c3641818b95,1,
,,,,,,,0,21,21,71,1,R, , , , ,space,2500,2.5,tasha1,001,2021-08-17_16h21.27.366,natb3,2021.2.3,Win32,58.5994726,60f71c21c01393248bc25db1,09dp1ryuik3u,6107d0959f7c4c3641818b95,1,
,,,,,,,0,22,22,212,1,Q, , , , ,space,2500,2.5,tasha1,001,2021-08-17_16h21.27.366,natb3,2021.2.3,Win32,58.5994726,60f71c21c01393248bc25db1,09dp1ryuik3u,6107d0959f7c4c3641818b95,1,
,,,,,,,0,23,23,110,1,I, , , , ,space,1500,1.5,tasha1,001,2021-08-17_16h21.27.366,natb3,2021.2.3,Win32,58.5994726,60f71c21c01393248bc25db1,09dp1ryuik3u,6107d0959f7c4c3641818b95,1,
,,,,,,,0,24,24,288,1,M, , , , ,space,1500,1.5,tasha1,001,2021-08-17_16h21.27.366,natb3,2021.2.3,Win32,58.5994726,60f71c21c01393248bc25db1,09dp1ryuik3u,6107d0959f7c4c3641818b95,1,
,,,,,,,0,25,25,67,1,Q, , , , ,space,2000,2,tasha1,001,2021-08-17_16h21.27.366,natb3,2021.2.3,Win32,58.5994726,60f71c21c01393248bc25db1,09dp1ryuik3u,6107d0959f7c4c3641818b95,1,
,,,,,,,0,26,26,319,1,V, , , , ,space,2000,2,tasha1,001,2021-08-17_16h21.27.366,natb3,2021.2.3,Win32,58.5994726,60f71c21c01393248bc25db1,09dp1ryuik3u,6107d0959f7c4c3641818b95,1,
,,,,,,,0,27,27,195,1,X, , , , ,,1500,1.5,tasha1,001,2021-08-17_16h21.27.366,natb3,2021.2.3,Win32,58.5994726,60f71c21c01393248bc25db1,09dp1ryuik3u,6107d0959f7c4c3641818b95,1,
,,,,,,,0,28,28,153,1,X,4,7, ,6,,2000,2,tasha1,001,2021-08-17_16h21.27.366,natb3,2021.2.3,Win32,58.5994726,60f71c21c01393248bc25db1,09dp1ryuik3u,6107d0959f7c4c3641818b95,1,
,,,,,,,0,29,29,101,1,Q, , , , ,space,2500,2.5,tasha1,001,2021-08-17_16h21.27.366,natb3,2021.2.3,Win32,58.5994726,60f71c21c01393248bc25db1,09dp1ryuik3u,6107d0959f7c4c3641818b95,1,
,,,,,,,0,30,30,202,1,L, , , , ,space,2500,2.5,tasha1,001,2021-08-17_16h21.27.366,natb3,2021.2.3,Win32,58.5994726,60f71c21c01393248bc25db1,09dp1ryuik3u,6107d0959f7c4c3641818b95,1,
,,,,,,,0,31,31,18,1,X, ,2,5,8,,2500,2.5,tasha1,001,2021-08-17_16h21.27.366,natb3,2021.2.3,Win32,58.5994726,60f71c21c01393248bc25db1,09dp1ryuik3u,6107d0959f7c4c3641818b95,1,
,,,,,,,0,32,32,94,1,C, , , , ,space,2000,2,tasha1,001,2021-08-17_16h21.27.366,natb3,2021.2.3,Win32,58.5994726,60f71c21c01393248bc25db1,09dp1ryuik3u,6107d0959f7c4c3641818b95,1,
,,,,,,,0,33,33,79,1,P, , , , ,space,2000,2,tasha1,001,2021-08-17_16h21.27.366,natb3,2021.2.3,Win32,58.5994726,60f71c21c01393248bc25db1,09dp1ryuik3u,6107d0959f7c4c3641818b95,1,
,,,,,,,0,34,34,171,1,X, , , , ,,1500,1.5,tasha1,001,2021-08-17_16h21.27.366,natb3,2021.2.3,Win32,58.5994726,60f71c21c01393248bc25db1,09dp1ryuik3u,6107d0959f7c4c3641818b95,1,
,,,,,,,0,35,35,263,1,X,4, ,6, ,,1500,1.5,tasha1,001,2021-08-17_16h21.27.366,natb3,2021.2.3,Win32,58.5994726,60f71c21c01393248bc25db1,09dp1ryuik3u,6107d0959f7c4c3641818b95,1,
,,,,,,,0,36,36,82,1,X,4,6,1,7,,2000,2,tasha1,001,2021-08-17_16h21.27.366,natb3,2021.2.3,Win32,58.5994726,60f71c21c01393248bc25db1,09dp1ryuik3u,6107d0959f7c4c3641818b95,1,
,,,,,,,0,37,37,234,1,P, , , , ,space,2000,2,tasha1,001,2021-08-17_16h21.27.366,natb3,2021.2.3,Win32,58.5994726,60f71c21c01393248bc25db1,09dp1ryuik3u,6107d0959f7c4c3641818b95,1,
,,,,,,,0,38,38,210,1,M, , , , ,space,1500,1.5,tasha1,001,2021-08-17_16h21.27.366,natb3,2021.2.3,Win32,58.5994726,60f71c21c01393248bc25db1,09dp1ryuik3u,6107d0959f7c4c3641818b95,1,
,,,,,,,0,39,39,152,1,U, , , , ,space,2000,2,tasha1,001,2021-08-17_16h21.27.366,natb3,2021.2.3,Win32,58.5994726,60f71c21c01393248bc25db1,09dp1ryuik3u,6107d0959f7c4c3641818b95,1,
,,,,,,,0,40,40,40,1,T, , , , ,space,1500,1.5,tasha1,001,2021-08-17_16h21.27.366,natb3,2021.2.3,Win32,58.5994726,60f71c21c01393248bc25db1,09dp1ryuik3u,6107d0959f7c4c3641818b95,1,
,,,,,,,0,41,41,229,1,X,8, ,2,6,,2500,2.5,tasha1,001,2021-08-17_16h21.27.366,natb3,2021.2.3,Win32,58.5994726,60f71c21c01393248bc25db1,09dp1ryuik3u,6107d0959f7c4c3641818b95,1,
,,,,space,0.0881,,0,42,42,227,1,T, , , , ,space,1500,1.5,tasha1,001,2021-08-17_16h21.27.366,natb3,2021.2.3,Win32,58.5994726,60f71c21c01393248bc25db1,09dp1ryuik3u,6107d0959f7c4c3641818b95,1,
,,,,space,0.0596,,0,43,43,122,1,X,1, , ,8,,1500,1.5,tasha1,001,2021-08-17_16h21.27.366,natb3,2021.2.3,Win32,58.5994726,60f71c21c01393248bc25db1,09dp1ryuik3u,6107d0959f7c4c3641818b95,1,
,,,,,,,0,44,44,241,1,G, , , , ,space,2500,2.5,tasha1,001,2021-08-17_16h21.27.366,natb3,2021.2.3,Win32,58.5994726,60f71c21c01393248bc25db1,09dp1ryuik3u,6107d0959f7c4c3641818b95,1,
,,,,,,,0,45,45,84,1,X, , , , ,,2000,2,tasha1,001,2021-08-17_16h21.27.366,natb3,2021.2.3,Win32,58.5994726,60f71c21c01393248bc25db1,09dp1ryuik3u,6107d0959f7c4c3641818b95,1,
,,,,,,,0,46,46,146,1,W, , , , ,space,1500,1.5,tasha1,001,2021-08-17_16h21.27.366,natb3,2021.2.3,Win32,58.5994726,60f71c21c01393248bc25db1,09dp1ryuik3u,6107d0959f7c4c3641818b95,1,
,,,,,,,0,47,47,88,1,J, , , , ,space,2500,2.5,tasha1,001,2021-08-17_16h21.27.366,natb3,2021.2.3,Win32,58.5994726,60f71c21c01393248bc25db1,09dp1ryuik3u,6107d0959f7c4c3641818b95,1,
,,,,,,,0,48,48,46,1,X, , , , ,,2000,2,tasha1,001,2021-08-17_16h21.27.366,natb3,2021.2.3,Win32,58.5994726,60f71c21c01393248bc25db1,09dp1ryuik3u,6107d0959f7c4c3641818b95,1,
,,,,,,,0,49,49,271,1,X, , , , ,,2500,2.5,tasha1,001,2021-08-17_16h21.27.366,natb3,2021.2.3,Win32,58.5994726,60f71c21c01393248bc25db1,09dp1ryuik3u,6107d0959f7c4c3641818b95,1,
,,,,,,,0,50,50,245,1,K, , , , ,space,2000,2,tasha1,001,2021-08-17_16h21.27.366,natb3,2021.2.3,Win32,58.5994726,60f71c21c01393248bc25db1,09dp1ryuik3u,6107d0959f7c4c3641818b95,1,
,,,,,,,0,51,51,335,1,P,,,,,space,1500,1.5,tasha1,001,2021-08-17_16h21.27.366,natb3,2021.2.3,Win32,58.5994726,60f71c21c01393248bc25db1,09dp1ryuik3u,6107d0959f7c4c3641818b95,1,
,,,,,,,0,52,52,223,1,Q, , , , ,space,2000,2,tasha1,001,2021-08-17_16h21.27.366,natb3,2021.2.3,Win32,58.5994726,60f71c21c01393248bc25db1,09dp1ryuik3u,6107d0959f7c4c3641818b95,1,
,,,,,,,0,53,53,119,1,Y, , , , ,space,2500,2.5,tasha1,001,2021-08-17_16h21.27.366,natb3,2021.2.3,Win32,58.5994726,60f71c21c01393248bc25db1,09dp1ryuik3u,6107d0959f7c4c3641818b95,1,
,,,,,,,0,54,54,284,1,V, , , , ,space,2500,2.5,tasha1,001,2021-08-17_16h21.27.366,natb3,2021.2.3,Win32,58.5994726,60f71c21c01393248bc25db1,09dp1ryuik3u,6107d0959f7c4c3641818b95,1,
,,,,,,,0,55,55,236,1,X,3, ,4,7,,2500,2.5,tasha1,001,2021-08-17_16h21.27.366,natb3,2021.2.3,Win32,58.5994726,60f71c21c01393248bc25db1,09dp1ryuik3u,6107d0959f7c4c3641818b95,1,
,,,,,,,0,56,56,147,1,E, , , , ,space,2000,2,tasha1,001,2021-08-17_16h21.27.366,natb3,2021.2.3,Win32,58.5994726,60f71c21c01393248bc25db1,09dp1ryuik3u,6107d0959f7c4c3641818b95,1,
,,,,,,,0,57,57,215,1,E, , , , ,space,2500,2.5,tasha1,001,2021-08-17_16h21.27.366,natb3,2021.2.3,Win32,58.5994726,60f71c21c01393248bc25db1,09dp1ryuik3u,6107d0959f7c4c3641818b95,1,
,,,,,,,0,58,58,246,1,L, , , , ,space,2500,2.5,tasha1,001,2021-08-17_16h21.27.366,natb3,2021.2.3,Win32,58.5994726,60f71c21c01393248bc25db1,09dp1ryuik3u,6107d0959f7c4c3641818b95,1,
,,,,,,,0,59,59,257,1,W, , , , ,space,2000,2,tasha1,001,2021-08-17_16h21.27.366,natb3,2021.2.3,Win32,58.5994726,60f71c21c01393248bc25db1,09dp1ryuik3u,6107d0959f7c4c3641818b95,1,
,,,,,,,0,60,60,41,1,Y, , , , ,space,2500,2.5,tasha1,001,2021-08-17_16h21.27.366,natb3,2021.2.3,Win32,58.5994726,60f71c21c01393248bc25db1,09dp1ryuik3u,6107d0959f7c4c3641818b95,1,
,,,,,,,0,61,61,34,1,Q, , , , ,space,2500,2.5,tasha1,001,2021-08-17_16h21.27.366,natb3,2021.2.3,Win32,58.5994726,60f71c21c01393248bc25db1,09dp1ryuik3u,6107d0959f7c4c3641818b95,1,
,,,,,,,0,62,62,259,1,X,8, , ,3,,2500,2.5,tasha1,001,2021-08-17_16h21.27.366,natb3,2021.2.3,Win32,58.5994726,60f71c21c01393248bc25db1,09dp1ryuik3u,6107d0959f7c4c3641818b95,1,
,,,,,,,0,63,63,254,1,M, , , , ,space,1500,1.5,tasha1,001,2021-08-17_16h21.27.366,natb3,2021.2.3,Win32,58.5994726,60f71c21c01393248bc25db1,09dp1ryuik3u,6107d0959f7c4c3641818b95,1,
,,,,,,,0,64,64,69,1,X, , , , ,,1500,1.5,tasha1,001,2021-08-17_16h21.27.366,natb3,2021.2.3,Win32,58.5994726,60f71c21c01393248bc25db1,09dp1ryuik3u,6107d0959f7c4c3641818b95,1,
,,,,,,,0,65,65,134,1,J, , , , ,space,2000,2,tasha1,001,2021-08-17_16h21.27.366,natb3,2021.2.3,Win32,58.5994726,60f71c21c01393248bc25db1,09dp1ryuik3u,6107d0959f7c4c3641818b95,1,
,,,,,,,0,66,66,118,1,X, , , , ,,2000,2,tasha1,001,2021-08-17_16h21.27.366,natb3,2021.2.3,Win32,58.5994726,60f71c21c01393248bc25db1,09dp1ryuik3u,6107d0959f7c4c3641818b95,1,
,,,,,,,0,67,67,278,1,J, , , , ,space,2000,2,tasha1,001,2021-08-17_16h21.27.366,natb3,2021.2.3,Win32,58.5994726,60f71c21c01393248bc25db1,09dp1ryuik3u,6107d0959f7c4c3641818b95,1,
,,,,,,,0,68,68,44,1,I, , , , ,space,2500,2.5,tasha1,001,2021-08-17_16h21.27.366,natb3,2021.2.3,Win32,58.5994726,60f71c21c01393248bc25db1,09dp1ryuik3u,6107d0959f7c4c3641818b95,1,
,,,,,,,0,69,69,250,1,V, , , , ,space,2000,2,tasha1,001,2021-08-17_16h21.27.366,natb3,2021.2.3,Win32,58.5994726,60f71c21c01393248bc25db1,09dp1ryuik3u,6107d0959f7c4c3641818b95,1,
,,,,,,,0,70,70,329,1,X,3,4, ,2,,2500,2.5,tasha1,001,2021-08-17_16h21.27.366,natb3,2021.2.3,Win32,58.5994726,60f71c21c01393248bc25db1,09dp1ryuik3u,6107d0959f7c4c3641818b95,1,
,,,,,,,0,71,71,56,1,J, , , , ,space,1500,1.5,tasha1,001,2021-08-17_16h21.27.366,natb3,2021.2.3,Win32,58.5994726,60f71c21c01393248bc25db1,09dp1ryuik3u,6107d0959f7c4c3641818b95,1,
,,,,,,,0,72,72,204,1,Z, , , , ,space,2000,2,tasha1,001,2021-08-17_16h21.27.366,natb3,2021.2.3,Win32,58.5994726,60f71c21c01393248bc25db1,09dp1ryuik3u,6107d0959f7c4c3641818b95,1,
,,,,,,,0,73,73,148,1,X, , , , ,,2000,2,tasha1,001,2021-08-17_16h21.27.366,natb3,2021.2.3,Win32,58.5994726,60f71c21c01393248bc25db1,09dp1ryuik3u,6107d0959f7c4c3641818b95,1,
,,,,,,,0,74,74,125,1,X, , , , ,,2000,2,tasha1,001,2021-08-17_16h21.27.366,natb3,2021.2.3,Win32,58.5994726,60f71c21c01393248bc25db1,09dp1ryuik3u,6107d0959f7c4c3641818b95,1,
,,,,,,,0,75,75,128,1,D, , , , ,space,2500,2.5,tasha1,001,2021-08-17_16h21.27.366,natb3,2021.2.3,Win32,58.5994726,60f71c21c01393248bc25db1,09dp1ryuik3u,6107d0959f7c4c3641818b95,1,
,,,,,,,0,76,76,182,1,X, , , , ,,1500,1.5,tasha1,001,2021-08-17_16h21.27.366,natb3,2021.2.3,Win32,58.5994726,60f71c21c01393248bc25db1,09dp1ryuik3u,6107d0959f7c4c3641818b95,1,
,,,,,,,0,77,77,159,1,S, , , , ,space,2500,2.5,tasha1,001,2021-08-17_16h21.27.366,natb3,2021.2.3,Win32,58.5994726,60f71c21c01393248bc25db1,09dp1ryuik3u,6107d0959f7c4c3641818b95,1,
,,,,,,,0,78,78,203,1,X, , , , ,,2500,2.5,tasha1,001,2021-08-17_16h21.27.366,natb3,2021.2.3,Win32,58.5994726,60f71c21c01393248bc25db1,09dp1ryuik3u,6107d0959f7c4c3641818b95,1,
,,,,,,,0,79,79,307,1,F, , , , ,space,2500,2.5,tasha1,001,2021-08-17_16h21.27.366,natb3,2021.2.3,Win32,58.5994726,60f71c21c01393248bc25db1,09dp1ryuik3u,6107d0959f7c4c3641818b95,1,
,,,,,,,0,80,80,0,1,Q, , , , ,space,1500,1.5,tasha1,001,2021-08-17_16h21.27.366,natb3,2021.2.3,Win32,58.5994726,60f71c21c01393248bc25db1,09dp1ryuik3u,6107d0959f7c4c3641818b95,1,
,,,,,,,0,81,81,297,1,U, , , , ,space,2000,2,tasha1,001,2021-08-17_16h21.27.366,natb3,2021.2.3,Win32,58.5994726,60f71c21c01393248bc25db1,09dp1ryuik3u,6107d0959f7c4c3641818b95,1,
,,,,,,,0,82,82,320,1,B, , , , ,space,1500,1.5,tasha1,001,2021-08-17_16h21.27.366,natb3,2021.2.3,Win32,58.5994726,60f71c21c01393248bc25db1,09dp1ryuik3u,6107d0959f7c4c3641818b95,1,
,,,,,,,0,83,83,27,1,X,5, ,1,3,,1500,1.5,tasha1,001,2021-08-17_16h21.27.366,natb3,2021.2.3,Win32,58.5994726,60f71c21c01393248bc25db1,09dp1ryuik3u,6107d0959f7c4c3641818b95,1,
,,,,,,,0,84,84,14,1,S, , , , ,space,2500,2.5,tasha1,001,2021-08-17_16h21.27.366,natb3,2021.2.3,Win32,58.5994726,60f71c21c01393248bc25db1,09dp1ryuik3u,6107d0959f7c4c3641818b95,1,
,,,,,,,0,85,85,318,1,X, , , , ,,1500,1.5,tasha1,001,2021-08-17_16h21.27.366,natb3,2021.2.3,Win32,58.5994726,60f71c21c01393248bc25db1,09dp1ryuik3u,6107d0959f7c4c3641818b95,1,
,,,,,,,0,86,86,28,1,V, , , , ,space,1500,1.5,tasha1,001,2021-08-17_16h21.27.366,natb3,2021.2.3,Win32,58.5994726,60f71c21c01393248bc25db1,09dp1ryuik3u,6107d0959f7c4c3641818b95,1,
,,,,,,,0,87,87,132,1,H, , , , ,space,2500,2.5,tasha1,001,2021-08-17_16h21.27.366,natb3,2021.2.3,Win32,58.5994726,60f71c21c01393248bc25db1,09dp1ryuik3u,6107d0959f7c4c3641818b95,1,
,,,,,,,0,88,88,205,1,C, , , , ,space,2000,2,tasha1,001,2021-08-17_16h21.27.366,natb3,2021.2.3,Win32,58.5994726,60f71c21c01393248bc25db1,09dp1ryuik3u,6107d0959f7c4c3641818b95,1,
,,,,,,,0,89,89,209,1,N, , , , ,space,2000,2,tasha1,001,2021-08-17_16h21.27.366,natb3,2021.2.3,Win32,58.5994726,60f71c21c01393248bc25db1,09dp1ryuik3u,6107d0959f7c4c3641818b95,1,
,,,,,,,0,90,90,1,1,W, , , , ,space,2000,2,tasha1,001,2021-08-17_16h21.27.366,natb3,2021.2.3,Win32,58.5994726,60f71c21c01393248bc25db1,09dp1ryuik3u,6107d0959f7c4c3641818b95,1,
,,,,,,,0,91,91,219,1,Y, , , , ,space,2000,2,tasha1,001,2021-08-17_16h21.27.366,natb3,2021.2.3,Win32,58.5994726,60f71c21c01393248bc25db1,09dp1ryuik3u,6107d0959f7c4c3641818b95,1,
,,,,,,,0,92,92,199,1,J, , , , ,space,2500,2.5,tasha1,001,2021-08-17_16h21.27.366,natb3,2021.2.3,Win32,58.5994726,60f71c21c01393248bc25db1,09dp1ryuik3u,6107d0959f7c4c3641818b95,1,
,,,,,,,0,93,93,280,1,L, , , , ,space,1500,1.5,tasha1,001,2021-08-17_16h21.27.366,natb3,2021.2.3,Win32,58.5994726,60f71c21c01393248bc25db1,09dp1ryuik3u,6107d0959f7c4c3641818b95,1,
,,,,,,,0,94,94,16,1,D, , , , ,space,1500,1.5,tasha1,001,2021-08-17_16h21.27.366,natb3,2021.2.3,Win32,58.5994726,60f71c21c01393248bc25db1,09dp1ryuik3u,6107d0959f7c4c3641818b95,1,
,,,,,,,0,95,95,114,1,E, , , , ,space,2000,2,tasha1,001,2021-08-17_16h21.27.366,natb3,2021.2.3,Win32,58.5994726,60f71c21c01393248bc25db1,09dp1ryuik3u,6107d0959f7c4c3641818b95,1,
,,,,,,,0,96,96,129,1,X,2,3,5, ,,1500,1.5,tasha1,001,2021-08-17_16h21.27.366,natb3,2021.2.3,Win32,58.5994726,60f71c21c01393248bc25db1,09dp1ryuik3u,6107d0959f7c4c3641818b95,1,
,,,,,,,0,97,97,276,1,H, , , , ,space,2000,2,tasha1,001,2021-08-17_16h21.27.366,natb3,2021.2.3,Win32,58.5994726,60f71c21c01393248bc25db1,09dp1ryuik3u,6107d0959f7c4c3641818b95,1,
,,,,,,,0,98,98,135,1,K, , , , ,space,1500,1.5,tasha1,001,2021-08-17_16h21.27.366,natb3,2021.2.3,Win32,58.5994726,60f71c21c01393248bc25db1,09dp1ryuik3u,6107d0959f7c4c3641818b95,1,
,,,,,,,0,99,99,116,1,X, , , , ,,2000,2,tasha1,001,2021-08-17_16h21.27.366,natb3,2021.2.3,Win32,58.5994726,60f71c21c01393248bc25db1,09dp1ryuik3u,6107d0959f7c4c3641818b95,1,
,,,,,,,0,100,100,139,1,V, , , , ,space,2000,2,tasha1,001,2021-08-17_16h21.27.366,natb3,2021.2.3,Win32,58.5994726,60f71c21c01393248bc25db1,09dp1ryuik3u,6107d0959f7c4c3641818b95,1,
,,,,,,,0,101,101,178,1,Q, , , , ,space,1500,1.5,tasha1,001,2021-08-17_16h21.27.366,natb3,2021.2.3,Win32,58.5994726,60f71c21c01393248bc25db1,09dp1ryuik3u,6107d0959f7c4c3641818b95,1,
,,,,,,,0,102,102,321,1,N, , , , ,space,2000,2,tasha1,001,2021-08-17_16h21.27.366,natb3,2021.2.3,Win32,58.5994726,60f71c21c01393248bc25db1,09dp1ryuik3u,6107d0959f7c4c3641818b95,1,
,,,,,,,0,103,103,316,1,Z, , , , ,space,1500,1.5,tasha1,001,2021-08-17_16h21.27.366,natb3,2021.2.3,Win32,58.5994726,60f71c21c01393248bc25db1,09dp1ryuik3u,6107d0959f7c4c3641818b95,1,
,,,,,,,0,104,104,282,1,X, , , , ,,2500,2.5,tasha1,001,2021-08-17_16h21.27.366,natb3,2021.2.3,Win32,58.5994726,60f71c21c01393248bc25db1,09dp1ryuik3u,6107d0959f7c4c3641818b95,1,
,,,,,,,0,105,105,277,1,X,8,5, ,2,,2000,2,tasha1,001,2021-08-17_16h21.27.366,natb3,2021.2.3,Win32,58.5994726,60f71c21c01393248bc25db1,09dp1ryuik3u,6107d0959f7c4c3641818b95,1,
,,,,,,,0,106,106,49,1,S, , , , ,space,1500,1.5,tasha1,001,2021-08-17_16h21.27.366,natb3,2021.2.3,Win32,58.5994726,60f71c21c01393248bc25db1,09dp1ryuik3u,6107d0959f7c4c3641818b95,1,
,,,,,,,0,107,107,305,1,X, , , , ,,1500,1.5,tasha1,001,2021-08-17_16h21.27.366,natb3,2021.2.3,Win32,58.5994726,60f71c21c01393248bc25db1,09dp1ryuik3u,6107d0959f7c4c3641818b95,1,
,,,,,,,0,108,108,332,1,U, , , , ,space,2000,2,tasha1,001,2021-08-17_16h21.27.366,natb3,2021.2.3,Win32,58.5994726,60f71c21c01393248bc25db1,09dp1ryuik3u,6107d0959f7c4c3641818b95,1,
,,,,,,,0,109,109,151,1,Y, , , , ,space,2500,2.5,tasha1,001,2021-08-17_16h21.27.366,natb3,2021.2.3,Win32,58.5994726,60f71c21c01393248bc25db1,09dp1ryuik3u,6107d0959f7c4c3641818b95,1,
,,,,,,,0,110,110,270,1,S, , , , ,space,1500,1.5,tasha1,001,2021-08-17_16h21.27.366,natb3,2021.2.3,Win32,58.5994726,60f71c21c01393248bc25db1,09dp1ryuik3u,6107d0959f7c4c3641818b95,1,
,,,,,,,0,111,111,211,1,X, , , , ,,2500,2.5,tasha1,001,2021-08-17_16h21.27.366,natb3,2021.2.3,Win32,58.5994726,60f71c21c01393248bc25db1,09dp1ryuik3u,6107d0959f7c4c3641818b95,1,
,,,,,,,0,112,112,5,1,T, , , , ,space,2000,2,tasha1,001,2021-08-17_16h21.27.366,natb3,2021.2.3,Win32,58.5994726,60f71c21c01393248bc25db1,09dp1ryuik3u,6107d0959f7c4c3641818b95,1,
,,,,,,,0,113,113,166,1,X, , , , ,,2000,2,tasha1,001,2021-08-17_16h21.27.366,natb3,2021.2.3,Win32,58.5994726,60f71c21c01393248bc25db1,09dp1ryuik3u,6107d0959f7c4c3641818b95,1,
,,,,,,,0,114,114,60,1,X,7,3,5, ,,1500,1.5,tasha1,001,2021-08-17_16h21.27.366,natb3,2021.2.3,Win32,58.5994726,60f71c21c01393248bc25db1,09dp1ryuik3u,6107d0959f7c4c3641818b95,1,
,,,,,,,0,115,115,96,1,X, , , , ,,1500,1.5,tasha1,001,2021-08-17_16h21.27.366,natb3,2021.2.3,Win32,58.5994726,60f71c21c01393248bc25db1,09dp1ryuik3u,6107d0959f7c4c3641818b95,1,
,,,,,,,0,116,116,92,1,Z, , , , ,space,1500,1.5,tasha1,001,2021-08-17_16h21.27.366,natb3,2021.2.3,Win32,58.5994726,60f71c21c01393248bc25db1,09dp1ryuik3u,6107d0959f7c4c3641818b95,1,
,,,,,,,0,117,117,281,1,Z, , , , ,space,1500,1.5,tasha1,001,2021-08-17_16h21.27.366,natb3,2021.2.3,Win32,58.5994726,60f71c21c01393248bc25db1,09dp1ryuik3u,6107d0959f7c4c3641818b95,1,
,,,,,,,0,118,118,291,1,X, , , , ,,2000,2,tasha1,001,2021-08-17_16h21.27.366,natb3,2021.2.3,Win32,58.5994726,60f71c21c01393248bc25db1,09dp1ryuik3u,6107d0959f7c4c3641818b95,1,
,,,,,,,0,119,119,315,1,X, , , , ,,2500,2.5,tasha1,001,2021-08-17_16h21.27.366,natb3,2021.2.3,Win32,58.5994726,60f71c21c01393248bc25db1,09dp1ryuik3u,6107d0959f7c4c3641818b95,1,
,,,,,,,0,120,120,42,1,U, , , , ,space,1500,1.5,tasha1,001,2021-08-17_16h21.27.366,natb3,2021.2.3,Win32,58.5994726,60f71c21c01393248bc25db1,09dp1ryuik3u,6107d0959f7c4c3641818b95,1,
,,,,,,,0,121,121,187,1,X, ,3,7,4,,1500,1.5,tasha1,001,2021-08-17_16h21.27.366,natb3,2021.2.3,Win32,58.5994726,60f71c21c01393248bc25db1,09dp1ryuik3u,6107d0959f7c4c3641818b95,1,
,,,,,,,0,122,122,232,1,O, , , , ,space,2500,2.5,tasha1,001,2021-08-17_16h21.27.366,natb3,2021.2.3,Win32,58.5994726,60f71c21c01393248bc25db1,09dp1ryuik3u,6107d0959f7c4c3641818b95,1,
,,,,,,,0,123,123,184,1,T, , , , ,space,2000,2,tasha1,001,2021-08-17_16h21.27.366,natb3,2021.2.3,Win32,58.5994726,60f71c21c01393248bc25db1,09dp1ryuik3u,6107d0959f7c4c3641818b95,1,
,,,,,,,0,124,124,325,1,X, , , , ,,2500,2.5,tasha1,001,2021-08-17_16h21.27.366,natb3,2021.2.3,Win32,58.5994726,60f71c21c01393248bc25db1,09dp1ryuik3u,6107d0959f7c4c3641818b95,1,
,,,,,,,0,125,125,231,1,I, , , , ,space,2500,2.5,tasha1,001,2021-08-17_16h21.27.366,natb3,2021.2.3,Win32,58.5994726,60f71c21c01393248bc25db1,09dp1ryuik3u,6107d0959f7c4c3641818b95,1,
,,,,,,,0,126,126,47,1,P, , , , ,space,2000,2,tasha1,001,2021-08-17_16h21.27.366,natb3,2021.2.3,Win32,58.5994726,60f71c21c01393248bc25db1,09dp1ryuik3u,6107d0959f7c4c3641818b95,1,
,,,,,,,0,127,127,230,1,U, , , , ,space,1500,1.5,tasha1,001,2021-08-17_16h21.27.366,natb3,2021.2.3,Win32,58.5994726,60f71c21c01393248bc25db1,09dp1ryuik3u,6107d0959f7c4c3641818b95,1,
,,,,,,,0,128,128,68,1,W, , , , ,space,2500,2.5,tasha1,001,2021-08-17_16h21.27.366,natb3,2021.2.3,Win32,58.5994726,60f71c21c01393248bc25db1,09dp1ryuik3u,6107d0959f7c4c3641818b95,1,
,,,,,,,0,129,129,112,1,Q, , , , ,space,2500,2.5,tasha1,001,2021-08-17_16h21.27.366,natb3,2021.2.3,Win32,58.5994726,60f71c21c01393248bc25db1,09dp1ryuik3u,6107d0959f7c4c3641818b95,1,
,,,,,,,0,130,130,120,1,U, , , , ,space,1500,1.5,tasha1,001,2021-08-17_16h21.27.366,natb3,2021.2.3,Win32,58.5994726,60f71c21c01393248bc25db1,09dp1ryuik3u,6107d0959f7c4c3641818b95,1,
,,,,,,,0,131,131,300,1,O, , , , ,space,2500,2.5,tasha1,001,2021-08-17_16h21.27.366,natb3,2021.2.3,Win32,58.5994726,60f71c21c01393248bc25db1,09dp1ryuik3u,6107d0959f7c4c3641818b95,1,
,,,,,,,0,132,132,180,1,W, , , , ,space,2000,2,tasha1,001,2021-08-17_16h21.27.366,natb3,2021.2.3,Win32,58.5994726,60f71c21c01393248bc25db1,09dp1ryuik3u,6107d0959f7c4c3641818b95,1,
,,,,,,,0,133,133,93,1,X,5, ,7, ,,2500,2.5,tasha1,001,2021-08-17_16h21.27.366,natb3,2021.2.3,Win32,58.5994726,60f71c21c01393248bc25db1,09dp1ryuik3u,6107d0959f7c4c3641818b95,1,
,,,,,,,0,134,134,121,1,I, , , , ,space,2000,2,tasha1,001,2021-08-17_16h21.27.366,natb3,2021.2.3,Win32,58.5994726,60f71c21c01393248bc25db1,09dp1ryuik3u,6107d0959f7c4c3641818b95,1,
,,,,,,,0,135,135,292,1,E, , , , ,space,2000,2,tasha1,001,2021-08-17_16h21.27.366,natb3,2021.2.3,Win32,58.5994726,60f71c21c01393248bc25db1,09dp1ryuik3u,6107d0959f7c4c3641818b95,1,
,,,,,,,0,136,136,200,1,X,7, ,5,3,,1500,1.5,tasha1,001,2021-08-17_16h21.27.366,natb3,2021.2.3,Win32,58.5994726,60f71c21c01393248bc25db1,09dp1ryuik3u,6107d0959f7c4c3641818b95,1,
,,,,,,,0,137,137,233,1,X, ,2, ,5,,1500,1.5,tasha1,001,2021-08-17_16h21.27.366,natb3,2021.2.3,Win32,58.5994726,60f71c21c01393248bc25db1,09dp1ryuik3u,6107d0959f7c4c3641818b95,1,
,,,,,,,0,138,138,109,1,U, , , , ,space,1500,1.5,tasha1,001,2021-08-17_16h21.27.366,natb3,2021.2.3,Win32,58.5994726,60f71c21c01393248bc25db1,09dp1ryuik3u,6107d0959f7c4c3641818b95,1,
,,,,,,,0,139,139,267,1,P, , , , ,space,2000,2,tasha1,001,2021-08-17_16h21.27.366,natb3,2021.2.3,Win32,58.5994726,60f71c21c01393248bc25db1,09dp1ryuik3u,6107d0959f7c4c3641818b95,1,
,,,,,,,0,140,140,220,1,U, , , , ,space,2500,2.5,tasha1,001,2021-08-17_16h21.27.366,natb3,2021.2.3,Win32,58.5994726,60f71c21c01393248bc25db1,09dp1ryuik3u,6107d0959f7c4c3641818b95,1,
,,,,,,,0,141,141,58,1,L, , , , ,space,2000,2,tasha1,001,2021-08-17_16h21.27.366,natb3,2021.2.3,Win32,58.5994726,60f71c21c01393248bc25db1,09dp1ryuik3u,6107d0959f7c4c3641818b95,1,
,,,,,,,0,142,142,70,1,E, , , , ,space,2500,2.5,tasha1,001,2021-08-17_16h21.27.366,natb3,2021.2.3,Win32,58.5994726,60f71c21c01393248bc25db1,09dp1ryuik3u,6107d0959f7c4c3641818b95,1,
,,,,,,,0,143,143,21,1,J, , , , ,space,1500,1.5,tasha1,001,2021-08-17_16h21.27.366,natb3,2021.2.3,Win32,58.5994726,60f71c21c01393248bc25db1,09dp1ryuik3u,6107d0959f7c4c3641818b95,1,
,,,,,,,0,144,144,302,1,X, , , , ,,2000,2,tasha1,001,2021-08-17_16h21.27.366,natb3,2021.2.3,Win32,58.5994726,60f71c21c01393248bc25db1,09dp1ryuik3u,6107d0959f7c4c3641818b95,1,
,,,,,,,0,145,145,298,1,I, , , , ,space,2000,2,tasha1,001,2021-08-17_16h21.27.366,natb3,2021.2.3,Win32,58.5994726,60f71c21c01393248bc25db1,09dp1ryuik3u,6107d0959f7c4c3641818b95,1,
,,,,,,,0,146,146,13,1,A, , , , ,space,2000,2,tasha1,001,2021-08-17_16h21.27.366,natb3,2021.2.3,Win32,58.5994726,60f71c21c01393248bc25db1,09dp1ryuik3u,6107d0959f7c4c3641818b95,1,
,,,,,,,0,147,147,59,1,Z, , , , ,space,2000,2,tasha1,001,2021-08-17_16h21.27.366,natb3,2021.2.3,Win32,58.5994726,60f71c21c01393248bc25db1,09dp1ryuik3u,6107d0959f7c4c3641818b95,1,
,,,,,,,0,148,148,130,1,F, , , , ,space,2000,2,tasha1,001,2021-08-17_16h21.27.366,natb3,2021.2.3,Win32,58.5994726,60f71c21c01393248bc25db1,09dp1ryuik3u,6107d0959f7c4c3641818b95,1,
,,,,,,,0,149,149,108,1,Y, , , , ,space,2500,2.5,tasha1,001,2021-08-17_16h21.27.366,natb3,2021.2.3,Win32,58.5994726,60f71c21c01393248bc25db1,09dp1ryuik3u,6107d0959f7c4c3641818b95,1,
,,,,,,,0,150,150,172,1,C, , , , ,space,1500,1.5,tasha1,001,2021-08-17_16h21.27.366,natb3,2021.2.3,Win32,58.5994726,60f71c21c01393248bc25db1,09dp1ryuik3u,6107d0959f7c4c3641818b95,1,
,,,,,,,0,151,151,279,1,K, , , , ,space,2500,2.5,tasha1,001,2021-08-17_16h21.27.366,natb3,2021.2.3,Win32,58.5994726,60f71c21c01393248bc25db1,09dp1ryuik3u,6107d0959f7c4c3641818b95,1,
,,,,,,,0,152,152,39,1,X,6,2, , ,,1500,1.5,tasha1,001,2021-08-17_16h21.27.366,natb3,2021.2.3,Win32,58.5994726,60f71c21c01393248bc25db1,09dp1ryuik3u,6107d0959f7c4c3641818b95,1,
,,,,,,,0,153,153,248,1,X, ,1,5, ,,1500,1.5,tasha1,001,2021-08-17_16h21.27.366,natb3,2021.2.3,Win32,58.5994726,60f71c21c01393248bc25db1,09dp1ryuik3u,6107d0959f7c4c3641818b95,1,
,,,,,,,0,154,154,167,1,K, , , , ,space,1500,1.5,tasha1,001,2021-08-17_16h21.27.366,natb3,2021.2.3,Win32,58.5994726,60f71c21c01393248bc25db1,09dp1ryuik3u,6107d0959f7c4c3641818b95,1,
,,,,,,,0,155,155,206,1,V, , , , ,space,2000,2,tasha1,001,2021-08-17_16h21.27.366,natb3,2021.2.3,Win32,58.5994726,60f71c21c01393248bc25db1,09dp1ryuik3u,6107d0959f7c4c3641818b95,1,
,,,,,,,0,156,156,160,1,D, , , , ,space,1500,1.5,tasha1,001,2021-08-17_16h21.27.366,natb3,2021.2.3,Win32,58.5994726,60f71c21c01393248bc25db1,09dp1ryuik3u,6107d0959f7c4c3641818b95,1,
,,,,,,,0,157,157,244,1,J, , , , ,space,1500,1.5,tasha1,001,2021-08-17_16h21.27.366,natb3,2021.2.3,Win32,58.5994726,60f71c21c01393248bc25db1,09dp1ryuik3u,6107d0959f7c4c3641818b95,1,
,,,,,,,0,158,158,197,1,G, , , , ,space,2500,2.5,tasha1,001,2021-08-17_16h21.27.366,natb3,2021.2.3,Win32,58.5994726,60f71c21c01393248bc25db1,09dp1ryuik3u,6107d0959f7c4c3641818b95,1,
,,,,,,,0,159,159,105,1,R, , , , ,space,2500,2.5,tasha1,001,2021-08-17_16h21.27.366,natb3,2021.2.3,Win32,58.5994726,60f71c21c01393248bc25db1,09dp1ryuik3u,6107d0959f7c4c3641818b95,1,
,,,,,,,0,160,160,36,1,W, , , , ,space,2000,2,tasha1,001,2021-08-17_16h21.27.366,natb3,2021.2.3,Win32,58.5994726,60f71c21c01393248bc25db1,09dp1ryuik3u,6107d0959f7c4c3641818b95,1,
,,,,,,,0,161,161,164,1,H, , , , ,space,2500,2.5,tasha1,001,2021-08-17_16h21.27.366,natb3,2021.2.3,Win32,58.5994726,60f71c21c01393248bc25db1,09dp1ryuik3u,6107d0959f7c4c3641818b95,1,
,,,,,,,0,162,162,170,1,Z, , , , ,space,2000,2,tasha1,001,2021-08-17_16h21.27.366,natb3,2021.2.3,Win32,58.5994726,60f71c21c01393248bc25db1,09dp1ryuik3u,6107d0959f7c4c3641818b95,1,
,,,,,,,0,163,163,78,1,X, , , , ,,2000,2,tasha1,001,2021-08-17_16h21.27.366,natb3,2021.2.3,Win32,58.5994726,60f71c21c01393248bc25db1,09dp1ryuik3u,6107d0959f7c4c3641818b95,1,
,,,,,,,0,164,164,176,1,N, , , , ,space,1500,1.5,tasha1,001,2021-08-17_16h21.27.366,natb3,2021.2.3,Win32,58.5994726,60f71c21c01393248bc25db1,09dp1ryuik3u,6107d0959f7c4c3641818b95,1,
,,,,,,,0,165,165,104,1,E, , , , ,space,2000,2,tasha1,001,2021-08-17_16h21.27.366,natb3,2021.2.3,Win32,58.5994726,60f71c21c01393248bc25db1,09dp1ryuik3u,6107d0959f7c4c3641818b95,1,
,,,,,,,0,166,166,193,1,S, , , , ,space,2500,2.5,tasha1,001,2021-08-17_16h21.27.366,natb3,2021.2.3,Win32,58.5994726,60f71c21c01393248bc25db1,09dp1ryuik3u,6107d0959f7c4c3641818b95,1,
,,,,,,space,0,167,167,72,1,T, , , , ,space,1500,1.5,tasha1,001,2021-08-17_16h21.27.366,natb3,2021.2.3,Win32,58.5994726,60f71c21c01393248bc25db1,09dp1ryuik3u,6107d0959f7c4c3641818b95,1,37.9607
,,,,,,,0,168,168,143,1,M, , , , ,space,2500,2.5,tasha1,001,2021-08-17_16h21.27.366,natb3,2021.2.3,Win32,58.5994726,60f71c21c01393248bc25db1,09dp1ryuik3u,6107d0959f7c4c3641818b95,1,
,,,,,,,0,169,169,313,1,X, , , , ,,2500,2.5,tasha1,001,2021-08-17_16h21.27.366,natb3,2021.2.3,Win32,58.5994726,60f71c21c01393248bc25db1,09dp1ryuik3u,6107d0959f7c4c3641818b95,1,
,,,,,,,0,170,170,255,1,X, , , , ,,1500,1.5,tasha1,001,2021-08-17_16h21.27.366,natb3,2021.2.3,Win32,58.5994726,60f71c21c01393248bc25db1,09dp1ryuik3u,6107d0959f7c4c3641818b95,1,
,,,,,,,0,171,171,213,1,X, , , , ,,2500,2.5,tasha1,001,2021-08-17_16h21.27.366,natb3,2021.2.3,Win32,58.5994726,60f71c21c01393248bc25db1,09dp1ryuik3u,6107d0959f7c4c3641818b95,1,
,,,,,,,0,172,172,55,1,H, , , , ,space,2500,2.5,tasha1,001,2021-08-17_16h21.27.366,natb3,2021.2.3,Win32,58.5994726,60f71c21c01393248bc25db1,09dp1ryuik3u,6107d0959f7c4c3641818b95,1,
,,,,,,,0,173,173,113,1,W, , , , ,space,2500,2.5,tasha1,001,2021-08-17_16h21.27.366,natb3,2021.2.3,Win32,58.5994726,60f71c21c01393248bc25db1,09dp1ryuik3u,6107d0959f7c4c3641818b95,1,
,,,,,,,0,174,174,301,1,P, , , , ,space,1500,1.5,tasha1,001,2021-08-17_16h21.27.366,natb3,2021.2.3,Win32,58.5994726,60f71c21c01393248bc25db1,09dp1ryuik3u,6107d0959f7c4c3641818b95,1,
,,,,,,,0,175,175,22,1,K, , , , ,space,2000,2,tasha1,001,2021-08-17_16h21.27.366,natb3,2021.2.3,Win32,58.5994726,60f71c21c01393248bc25db1,09dp1ryuik3u,6107d0959f7c4c3641818b95,1,
,,,,,,,0,176,176,83,1,D, , , , ,space,2000,2,tasha1,001,2021-08-17_16h21.27.366,natb3,2021.2.3,Win32,58.5994726,60f71c21c01393248bc25db1,09dp1ryuik3u,6107d0959f7c4c3641818b95,1,
,,,,,,,0,177,177,6,1,Y, , , , ,space,2500,2.5,tasha1,001,2021-08-17_16h21.27.366,natb3,2021.2.3,Win32,58.5994726,60f71c21c01393248bc25db1,09dp1ryuik3u,6107d0959f7c4c3641818b95,1,
,,,,,,,0,178,178,303,1,A, , , , ,space,2000,2,tasha1,001,2021-08-17_16h21.27.366,natb3,2021.2.3,Win32,58.5994726,60f71c21c01393248bc25db1,09dp1ryuik3u,6107d0959f7c4c3641818b95,1,
,,,,,,,0,179,179,32,1,M, , , , ,space,1500,1.5,tasha1,001,2021-08-17_16h21.27.366,natb3,2021.2.3,Win32,58.5994726,60f71c21c01393248bc25db1,09dp1ryuik3u,6107d0959f7c4c3641818b95,1,
,,,,,,,0,180,180,131,1,G, , , , ,space,1500,1.5,tasha1,001,2021-08-17_16h21.27.366,natb3,2021.2.3,Win32,58.5994726,60f71c21c01393248bc25db1,09dp1ryuik3u,6107d0959f7c4c3641818b95,1,
,,,,,,,0,181,181,221,1,I, , , , ,space,2500,2.5,tasha1,001,2021-08-17_16h21.27.366,natb3,2021.2.3,Win32,58.5994726,60f71c21c01393248bc25db1,09dp1ryuik3u,6107d0959f7c4c3641818b95,1,
,,,,,,,0,182,182,287,1,X, ,2, ,9,,2000,2,tasha1,001,2021-08-17_16h21.27.366,natb3,2021.2.3,Win32,58.5994726,60f71c21c01393248bc25db1,09dp1ryuik3u,6107d0959f7c4c3641818b95,1,
,,,,,,,0,183,183,89,1,X,3, , , ,,2000,2,tasha1,001,2021-08-17_16h21.27.366,natb3,2021.2.3,Win32,58.5994726,60f71c21c01393248bc25db1,09dp1ryuik3u,6107d0959f7c4c3641818b95,1,
,,,,,,,0,184,184,169,1,L, , , , ,space,2500,2.5,tasha1,001,2021-08-17_16h21.27.366,natb3,2021.2.3,Win32,58.5994726,60f71c21c01393248bc25db1,09dp1ryuik3u,6107d0959f7c4c3641818b95,1,
,,,,,,,0,185,185,100,1,M, , , , ,space,2000,2,tasha1,001,2021-08-17_16h21.27.366,natb3,2021.2.3,Win32,58.5994726,60f71c21c01393248bc25db1,09dp1ryuik3u,6107d0959f7c4c3641818b95,1,
,,,,,,,0,186,186,237,1,S, , , , ,space,1500,1.5,tasha1,001,2021-08-17_16h21.27.366,natb3,2021.2.3,Win32,58.5994726,60f71c21c01393248bc25db1,09dp1ryuik3u,6107d0959f7c4c3641818b95,1,
,,,,,,,0,187,187,174,1,B, , , , ,space,2500,2.5,tasha1,001,2021-08-17_16h21.27.366,natb3,2021.2.3,Win32,58.5994726,60f71c21c01393248bc25db1,09dp1ryuik3u,6107d0959f7c4c3641818b95,1,
,,,,,,,0,188,188,76,1,I, , , , ,space,2000,2,tasha1,001,2021-08-17_16h21.27.366,natb3,2021.2.3,Win32,58.5994726,60f71c21c01393248bc25db1,09dp1ryuik3u,6107d0959f7c4c3641818b95,1,
,,,,,,,0,189,189,102,1,X, ,6, , ,,1500,1.5,tasha1,001,2021-08-17_16h21.27.366,natb3,2021.2.3,Win32,58.5994726,60f71c21c01393248bc25db1,09dp1ryuik3u,6107d0959f7c4c3641818b95,1,
,,,,,,,0,190,190,115,1,R, , , , ,space,1500,1.5,tasha1,001,2021-08-17_16h21.27.366,natb3,2021.2.3,Win32,58.5994726,60f71c21c01393248bc25db1,09dp1ryuik3u,6107d0959f7c4c3641818b95,1,
,,,,,,,0,191,191,289,1,Q, , , , ,space,2000,2,tasha1,001,2021-08-17_16h21.27.366,natb3,2021.2.3,Win32,58.5994726,60f71c21c01393248bc25db1,09dp1ryuik3u,6107d0959f7c4c3641818b95,1,
,,,,,,,0,192,192,161,1,F, , , , ,space,1500,1.5,tasha1,001,2021-08-17_16h21.27.366,natb3,2021.2.3,Win32,58.5994726,60f71c21c01393248bc25db1,09dp1ryuik3u,6107d0959f7c4c3641818b95,1,
,,,,,,,0,193,193,30,1,N, , , , ,space,2500,2.5,tasha1,001,2021-08-17_16h21.27.366,natb3,2021.2.3,Win32,58.5994726,60f71c21c01393248bc25db1,09dp1ryuik3u,6107d0959f7c4c3641818b95,1,
,,,,,,,0,194,194,77,1,O, , , , ,space,2000,2,tasha1,001,2021-08-17_16h21.27.366,natb3,2021.2.3,Win32,58.5994726,60f71c21c01393248bc25db1,09dp1ryuik3u,6107d0959f7c4c3641818b95,1,
,,,,,,,0,195,195,256,1,Q, , , , ,space,2000,2,tasha1,001,2021-08-17_16h21.27.366,natb3,2021.2.3,Win32,58.5994726,60f71c21c01393248bc25db1,09dp1ryuik3u,6107d0959f7c4c3641818b95,1,
,,,,,,,0,196,196,17,1,F, , , , ,space,2500,2.5,tasha1,001,2021-08-17_16h21.27.366,natb3,2021.2.3,Win32,58.5994726,60f71c21c01393248bc25db1,09dp1ryuik3u,6107d0959f7c4c3641818b95,1,
,,,,,,,0,197,197,253,1,N, , , , ,space,2500,2.5,tasha1,001,2021-08-17_16h21.27.366,natb3,2021.2.3,Win32,58.5994726,60f71c21c01393248bc25db1,09dp1ryuik3u,6107d0959f7c4c3641818b95,1,
,,,,,,,0,198,198,326,1,W, , , , ,space,2000,2,tasha1,001,2021-08-17_16h21.27.366,natb3,2021.2.3,Win32,58.5994726,60f71c21c01393248bc25db1,09dp1ryuik3u,6107d0959f7c4c3641818b95,1,
,,,,,,,0,199,199,285,1,B, , , , ,space,1500,1.5,tasha1,001,2021-08-17_16h21.27.366,natb3,2021.2.3,Win32,58.5994726,60f71c21c01393248bc25db1,09dp1ryuik3u,6107d0959f7c4c3641818b95,1,
,,,,,,,0,200,200,269,1,A, , , , ,space,2500,2.5,tasha1,001,2021-08-17_16h21.27.366,natb3,2021.2.3,Win32,58.5994726,60f71c21c01393248bc25db1,09dp1ryuik3u,6107d0959f7c4c3641818b95,1,
,,,,,,,0,201,201,286,1,N, , , , ,space,1500,1.5,tasha1,001,2021-08-17_16h21.27.366,natb3,2021.2.3,Win32,58.5994726,60f71c21c01393248bc25db1,09dp1ryuik3u,6107d0959f7c4c3641818b95,1,
,,,,,,,0,202,202,192,1,A, , , , ,space,2000,2,tasha1,001,2021-08-17_16h21.27.366,natb3,2021.2.3,Win32,58.5994726,60f71c21c01393248bc25db1,09dp1ryuik3u,6107d0959f7c4c3641818b95,1,
,,,,,,,0,203,203,51,1,X,7,5,8, ,,1500,1.5,tasha1,001,2021-08-17_16h21.27.366,natb3,2021.2.3,Win32,58.5994726,60f71c21c01393248bc25db1,09dp1ryuik3u,6107d0959f7c4c3641818b95,1,
,,,,,,,0,204,204,201,1,K, , , , ,space,1500,1.5,tasha1,001,2021-08-17_16h21.27.366,natb3,2021.2.3,Win32,58.5994726,60f71c21c01393248bc25db1,09dp1ryuik3u,6107d0959f7c4c3641818b95,1,
,,,,,,,0,205,205,283,1,C, , , , ,space,1500,1.5,tasha1,001,2021-08-17_16h21.27.366,natb3,2021.2.3,Win32,58.5994726,60f71c21c01393248bc25db1,09dp1ryuik3u,6107d0959f7c4c3641818b95,1,
,,,,,,,0,206,206,334,1,O, , , , ,space,1500,1.5,tasha1,001,2021-08-17_16h21.27.366,natb3,2021.2.3,Win32,58.5994726,60f71c21c01393248bc25db1,09dp1ryuik3u,6107d0959f7c4c3641818b95,1,
,,,,,,,0,207,207,91,1,L, , , , ,space,2000,2,tasha1,001,2021-08-17_16h21.27.366,natb3,2021.2.3,Win32,58.5994726,60f71c21c01393248bc25db1,09dp1ryuik3u,6107d0959f7c4c3641818b95,1,
,,,,,,,0,208,208,95,1,V, , , , ,space,1500,1.5,tasha1,001,2021-08-17_16h21.27.366,natb3,2021.2.3,Win32,58.5994726,60f71c21c01393248bc25db1,09dp1ryuik3u,6107d0959f7c4c3641818b95,1,
,,,,,,,0,209,209,238,1,D, , , , ,space,1500,1.5,tasha1,001,2021-08-17_16h21.27.366,natb3,2021.2.3,Win32,58.5994726,60f71c21c01393248bc25db1,09dp1ryuik3u,6107d0959f7c4c3641818b95,1,
,,,,,,,0,210,210,247,1,Z, , , , ,space,1500,1.5,tasha1,001,2021-08-17_16h21.27.366,natb3,2021.2.3,Win32,58.5994726,60f71c21c01393248bc25db1,09dp1ryuik3u,6107d0959f7c4c3641818b95,1,
,,,,,,,0,211,211,57,1,K, , , , ,space,2500,2.5,tasha1,001,2021-08-17_16h21.27.366,natb3,2021.2.3,Win32,58.5994726,60f71c21c01393248bc25db1,09dp1ryuik3u,6107d0959f7c4c3641818b95,1,
,,,,,,,0,212,212,123,1,O, , , , ,space,1500,1.5,tasha1,001,2021-08-17_16h21.27.366,natb3,2021.2.3,Win32,58.5994726,60f71c21c01393248bc25db1,09dp1ryuik3u,6107d0959f7c4c3641818b95,1,
,,,,,,,0,213,213,45,1,O, , , , ,space,2000,2,tasha1,001,2021-08-17_16h21.27.366,natb3,2021.2.3,Win32,58.5994726,60f71c21c01393248bc25db1,09dp1ryuik3u,6107d0959f7c4c3641818b95,1,
,,,,,,,0,214,214,9,1,I, , , , ,space,1500,1.5,tasha1,001,2021-08-17_16h21.27.366,natb3,2021.2.3,Win32,58.5994726,60f71c21c01393248bc25db1,09dp1ryuik3u,6107d0959f7c4c3641818b95,1,
,,,,,,,0,215,215,61,1,C, , , , ,space,2000,2,tasha1,001,2021-08-17_16h21.27.366,natb3,2021.2.3,Win32,58.5994726,60f71c21c01393248bc25db1,09dp1ryuik3u,6107d0959f7c4c3641818b95,1,
,,,,,,,0,216,216,272,1,D, , , , ,space,2000,2,tasha1,001,2021-08-17_16h21.27.366,natb3,2021.2.3,Win32,58.5994726,60f71c21c01393248bc25db1,09dp1ryuik3u,6107d0959f7c4c3641818b95,1,
,,,,,,,0,217,217,190,1,P, , , , ,space,2000,2,tasha1,001,2021-08-17_16h21.27.366,natb3,2021.2.3,Win32,58.5994726,60f71c21c01393248bc25db1,09dp1ryuik3u,6107d0959f7c4c3641818b95,1,
,,,,,,,0,218,218,97,1,B, , , , ,space,2500,2.5,tasha1,001,2021-08-17_16h21.27.366,natb3,2021.2.3,Win32,58.5994726,60f71c21c01393248bc25db1,09dp1ryuik3u,6107d0959f7c4c3641818b95,1,
,,,,,,,0,219,219,239,1,X, , , , ,,2000,2,tasha1,001,2021-08-17_16h21.27.366,natb3,2021.2.3,Win32,58.5994726,60f71c21c01393248bc25db1,09dp1ryuik3u,6107d0959f7c4c3641818b95,1,
,,,,,,,0,220,220,3,1,R, , , , ,space,2000,2,tasha1,001,2021-08-17_16h21.27.366,natb3,2021.2.3,Win32,58.5994726,60f71c21c01393248bc25db1,09dp1ryuik3u,6107d0959f7c4c3641818b95,1,
,,,,,,,0,221,221,262,1,Y, , , , ,space,2500,2.5,tasha1,001,2021-08-17_16h21.27.366,natb3,2021.2.3,Win32,58.5994726,60f71c21c01393248bc25db1,09dp1ryuik3u,6107d0959f7c4c3641818b95,1,
,,,,,,,0,222,222,274,1,F, , , , ,space,2000,2,tasha1,001,2021-08-17_16h21.27.366,natb3,2021.2.3,Win32,58.5994726,60f71c21c01393248bc25db1,09dp1ryuik3u,6107d0959f7c4c3641818b95,1,
,,,,,,,0,223,223,138,1,X,8,5, ,3,,2000,2,tasha1,001,2021-08-17_16h21.27.366,natb3,2021.2.3,Win32,58.5994726,60f71c21c01393248bc25db1,09dp1ryuik3u,6107d0959f7c4c3641818b95,1,
,,,,,,,0,224,224,224,1,W, , , , ,space,1500,1.5,tasha1,001,2021-08-17_16h21.27.366,natb3,2021.2.3,Win32,58.5994726,60f71c21c01393248bc25db1,09dp1ryuik3u,6107d0959f7c4c3641818b95,1,
,,,,,,,0,225,225,296,1,Y, , , , ,space,2500,2.5,tasha1,001,2021-08-17_16h21.27.366,natb3,2021.2.3,Win32,58.5994726,60f71c21c01393248bc25db1,09dp1ryuik3u,6107d0959f7c4c3641818b95,1,
,,,,,,,0,226,226,74,1,X, ,4,3,2,,1500,1.5,tasha1,001,2021-08-17_16h21.27.366,natb3,2021.2.3,Win32,58.5994726,60f71c21c01393248bc25db1,09dp1ryuik3u,6107d0959f7c4c3641818b95,1,
,,,,,,,0,227,227,65,1,M, , , , ,space,1500,1.5,tasha1,001,2021-08-17_16h21.27.366,natb3,2021.2.3,Win32,58.5994726,60f71c21c01393248bc25db1,09dp1ryuik3u,6107d0959f7c4c3641818b95,1,
,,,,,,,0,228,228,137,1,C, , , , ,space,2500,2.5,tasha1,001,2021-08-17_16h21.27.366,natb3,2021.2.3,Win32,58.5994726,60f71c21c01393248bc25db1,09dp1ryuik3u,6107d0959f7c4c3641818b95,1,
,,,,,,,0,229,229,126,1,A, , , , ,space,2500,2.5,tasha1,001,2021-08-17_16h21.27.366,natb3,2021.2.3,Win32,58.5994726,60f71c21c01393248bc25db1,09dp1ryuik3u,6107d0959f7c4c3641818b95,1,
,,,,,,,0,230,230,261,1,T, , , , ,space,2000,2,tasha1,001,2021-08-17_16h21.27.366,natb3,2021.2.3,Win32,58.5994726,60f71c21c01393248bc25db1,09dp1ryuik3u,6107d0959f7c4c3641818b95,1,
,,,,,,,0,231,231,136,1,Z, , , , ,space,2500,2.5,tasha1,001,2021-08-17_16h21.27.366,natb3,2021.2.3,Win32,58.5994726,60f71c21c01393248bc25db1,09dp1ryuik3u,6107d0959f7c4c3641818b95,1,
,,,,,,,0,232,232,228,1,Y, , , , ,space,2000,2,tasha1,001,2021-08-17_16h21.27.366,natb3,2021.2.3,Win32,58.5994726,60f71c21c01393248bc25db1,09dp1ryuik3u,6107d0959f7c4c3641818b95,1,
,,,,,,,0,233,233,306,1,D, , , , ,space,2000,2,tasha1,001,2021-08-17_16h21.27.366,natb3,2021.2.3,Win32,58.5994726,60f71c21c01393248bc25db1,09dp1ryuik3u,6107d0959f7c4c3641818b95,1,
,,,,,,,0,234,234,106,1,T, , , , ,space,1500,1.5,tasha1,001,2021-08-17_16h21.27.366,natb3,2021.2.3,Win32,58.5994726,60f71c21c01393248bc25db1,09dp1ryuik3u,6107d0959f7c4c3641818b95,1,
,,,,,,,0,235,235,294,1,T, , , , ,space,2000,2,tasha1,001,2021-08-17_16h21.27.366,natb3,2021.2.3,Win32,58.5994726,60f71c21c01393248bc25db1,09dp1ryuik3u,6107d0959f7c4c3641818b95,1,
,,,,,,,0,236,236,198,1,H, , , , ,space,2500,2.5,tasha1,001,2021-08-17_16h21.27.366,natb3,2021.2.3,Win32,58.5994726,60f71c21c01393248bc25db1,09dp1ryuik3u,6107d0959f7c4c3641818b95,1,
,,,,,,,0,237,237,214,1,W, , , , ,space,2000,2,tasha1,001,2021-08-17_16h21.27.366,natb3,2021.2.3,Win32,58.5994726,60f71c21c01393248bc25db1,09dp1ryuik3u,6107d0959f7c4c3641818b95,1,
,,,,,,,0,238,238,186,1,U, , , , ,space,2500,2.5,tasha1,001,2021-08-17_16h21.27.366,natb3,2021.2.3,Win32,58.5994726,60f71c21c01393248bc25db1,09dp1ryuik3u,6107d0959f7c4c3641818b95,1,
,,,,,,,0,239,239,23,1,X,1, ,5, ,,2000,2,tasha1,001,2021-08-17_16h21.27.366,natb3,2021.2.3,Win32,58.5994726,60f71c21c01393248bc25db1,09dp1ryuik3u,6107d0959f7c4c3641818b95,1,
,,,,,,,0,240,240,299,1,X, , , , ,,2500,2.5,tasha1,001,2021-08-17_16h21.27.366,natb3,2021.2.3,Win32,58.5994726,60f71c21c01393248bc25db1,09dp1ryuik3u,6107d0959f7c4c3641818b95,1,
,,,,,,,0,241,241,177,1,M, , , , ,space,2500,2.5,tasha1,001,2021-08-17_16h21.27.366,natb3,2021.2.3,Win32,58.5994726,60f71c21c01393248bc25db1,09dp1ryuik3u,6107d0959f7c4c3641818b95,1,
,,,,,,,0,242,242,252,1,X,3, ,6,9,,2000,2,tasha1,001,2021-08-17_16h21.27.366,natb3,2021.2.3,Win32,58.5994726,60f71c21c01393248bc25db1,09dp1ryuik3u,6107d0959f7c4c3641818b95,1,
,,,,,,,0,243,243,333,1,I, , , , ,space,1500,1.5,tasha1,001,2021-08-17_16h21.27.366,natb3,2021.2.3,Win32,58.5994726,60f71c21c01393248bc25db1,09dp1ryuik3u,6107d0959f7c4c3641818b95,1,
,,,,,,,0,244,244,7,1,X, , , , ,,1500,1.5,tasha1,001,2021-08-17_16h21.27.366,natb3,2021.2.3,Win32,58.5994726,60f71c21c01393248bc25db1,09dp1ryuik3u,6107d0959f7c4c3641818b95,1,
,,,,,,,0,245,245,225,1,E, , , , ,space,2000,2,tasha1,001,2021-08-17_16h21.27.366,natb3,2021.2.3,Win32,58.5994726,60f71c21c01393248bc25db1,09dp1ryuik3u,6107d0959f7c4c3641818b95,1,
,,,,,,,0,246,246,154,1,I, , , , ,space,2500,2.5,tasha1,001,2021-08-17_16h21.27.366,natb3,2021.2.3,Win32,58.5994726,60f71c21c01393248bc25db1,09dp1ryuik3u,6107d0959f7c4c3641818b95,1,
,,,,,,,0,247,247,162,1,X,1,6, ,2,,1500,1.5,tasha1,001,2021-08-17_16h21.27.366,natb3,2021.2.3,Win32,58.5994726,60f71c21c01393248bc25db1,09dp1ryuik3u,6107d0959f7c4c3641818b95,1,
,,,,,,,0,248,248,183,1,R, , , , ,space,1500,1.5,tasha1,001,2021-08-17_16h21.27.366,natb3,2021.2.3,Win32,58.5994726,60f71c21c01393248bc25db1,09dp1ryuik3u,6107d0959f7c4c3641818b95,1,
,,,,,,,0,249,249,107,1,X,9,3, ,2,,2000,2,tasha1,001,2021-08-17_16h21.27.366,natb3,2021.2.3,Win32,58.5994726,60f71c21c01393248bc25db1,09dp1ryuik3u,6107d0959f7c4c3641818b95,1,
,,,,,,,0,250,250,216,1,R, , , , ,space,1500,1.5,tasha1,001,2021-08-17_16h21.27.366,natb3,2021.2.3,Win32,58.5994726,60f71c21c01393248bc25db1,09dp1ryuik3u,6107d0959f7c4c3641818b95,1,
,,,,,,,0,251,251,64,1,N, , , , ,space,2000,2,tasha1,001,2021-08-17_16h21.27.366,natb3,2021.2.3,Win32,58.5994726,60f71c21c01393248bc25db1,09dp1ryuik3u,6107d0959f7c4c3641818b95,1,
,,,,,,,0,252,252,144,1,Q, , , , ,space,2500,2.5,tasha1,001,2021-08-17_16h21.27.366,natb3,2021.2.3,Win32,58.5994726,60f71c21c01393248bc25db1,09dp1ryuik3u,6107d0959f7c4c3641818b95,1,
,,,,,,,0,253,253,181,1,E, , , , ,space,1500,1.5,tasha1,001,2021-08-17_16h21.27.366,natb3,2021.2.3,Win32,58.5994726,60f71c21c01393248bc25db1,09dp1ryuik3u,6107d0959f7c4c3641818b95,1,
,,,,,,,0,254,254,26,1,C, , , , ,space,2000,2,tasha1,001,2021-08-17_16h21.27.366,natb3,2021.2.3,Win32,58.5994726,60f71c21c01393248bc25db1,09dp1ryuik3u,6107d0959f7c4c3641818b95,1,
,,,,,,,0,255,255,19,1,G, , , , ,space,1500,1.5,tasha1,001,2021-08-17_16h21.27.366,natb3,2021.2.3,Win32,58.5994726,60f71c21c01393248bc25db1,09dp1ryuik3u,6107d0959f7c4c3641818b95,1,
,,,,,,,0,256,256,327,1,E, , , , ,space,1500,1.5,tasha1,001,2021-08-17_16h21.27.366,natb3,2021.2.3,Win32,58.5994726,60f71c21c01393248bc25db1,09dp1ryuik3u,6107d0959f7c4c3641818b95,1,
,,,,,,,0,257,257,194,1,D, , , , ,space,2000,2,tasha1,001,2021-08-17_16h21.27.366,natb3,2021.2.3,Win32,58.5994726,60f71c21c01393248bc25db1,09dp1ryuik3u,6107d0959f7c4c3641818b95,1,
,,,,,,,0,258,258,2,1,E, , , , ,space,2500,2.5,tasha1,001,2021-08-17_16h21.27.366,natb3,2021.2.3,Win32,58.5994726,60f71c21c01393248bc25db1,09dp1ryuik3u,6107d0959f7c4c3641818b95,1,
,,,,,,,0,259,259,62,1,V, , , , ,space,1500,1.5,tasha1,001,2021-08-17_16h21.27.366,natb3,2021.2.3,Win32,58.5994726,60f71c21c01393248bc25db1,09dp1ryuik3u,6107d0959f7c4c3641818b95,1,
,,,,,,,0,260,260,37,1,E, , , , ,space,2500,2.5,tasha1,001,2021-08-17_16h21.27.366,natb3,2021.2.3,Win32,58.5994726,60f71c21c01393248bc25db1,09dp1ryuik3u,6107d0959f7c4c3641818b95,1,
,,,,,,,0,261,261,235,1,A, , , , ,space,1500,1.5,tasha1,001,2021-08-17_16h21.27.366,natb3,2021.2.3,Win32,58.5994726,60f71c21c01393248bc25db1,09dp1ryuik3u,6107d0959f7c4c3641818b95,1,
,,,,,,,0,262,262,242,1,H, , , , ,space,2500,2.5,tasha1,001,2021-08-17_16h21.27.366,natb3,2021.2.3,Win32,58.5994726,60f71c21c01393248bc25db1,09dp1ryuik3u,6107d0959f7c4c3641818b95,1,
,,,,,,,0,263,263,251,1,B, , , , ,space,1500,1.5,tasha1,001,2021-08-17_16h21.27.366,natb3,2021.2.3,Win32,58.5994726,60f71c21c01393248bc25db1,09dp1ryuik3u,6107d0959f7c4c3641818b95,1,
,,,,,,,0,264,264,264,1,U, , , , ,space,2000,2,tasha1,001,2021-08-17_16h21.27.366,natb3,2021.2.3,Win32,58.5994726,60f71c21c01393248bc25db1,09dp1ryuik3u,6107d0959f7c4c3641818b95,1,
,,,,,,,0,265,265,54,1,X, , , , ,,2000,2,tasha1,001,2021-08-17_16h21.27.366,natb3,2021.2.3,Win32,58.5994726,60f71c21c01393248bc25db1,09dp1ryuik3u,6107d0959f7c4c3641818b95,1,
,,,,,,,0,266,266,24,1,L, , , , ,space,2500,2.5,tasha1,001,2021-08-17_16h21.27.366,natb3,2021.2.3,Win32,58.5994726,60f71c21c01393248bc25db1,09dp1ryuik3u,6107d0959f7c4c3641818b95,1,
,,,,,,,0,267,267,111,1,O, , , , ,space,2000,2,tasha1,001,2021-08-17_16h21.27.366,natb3,2021.2.3,Win32,58.5994726,60f71c21c01393248bc25db1,09dp1ryuik3u,6107d0959f7c4c3641818b95,1,
,,,,,,,0,268,268,295,1,X,8,7,5, ,,2500,2.5,tasha1,001,2021-08-17_16h21.27.366,natb3,2021.2.3,Win32,58.5994726,60f71c21c01393248bc25db1,09dp1ryuik3u,6107d0959f7c4c3641818b95,1,
,,,,,,,0,269,269,207,1,X,9, ,2, ,,2500,2.5,tasha1,001,2021-08-17_16h21.27.366,natb3,2021.2.3,Win32,58.5994726,60f71c21c01393248bc25db1,09dp1ryuik3u,6107d0959f7c4c3641818b95,1,
,,,,,,,0,270,270,304,1,S, , , , ,space,2000,2,tasha1,001,2021-08-17_16h21.27.366,natb3,2021.2.3,Win32,58.5994726,60f71c21c01393248bc25db1,09dp1ryuik3u,6107d0959f7c4c3641818b95,1,
,,,,,,,0,271,271,189,1,O, , , , ,space,1500,1.5,tasha1,001,2021-08-17_16h21.27.366,natb3,2021.2.3,Win32,58.5994726,60f71c21c01393248bc25db1,09dp1ryuik3u,6107d0959f7c4c3641818b95,1,
,,,,,,,0,272,272,140,1,B, , , , ,space,2500,2.5,tasha1,001,2021-08-17_16h21.27.366,natb3,2021.2.3,Win32,58.5994726,60f71c21c01393248bc25db1,09dp1ryuik3u,6107d0959f7c4c3641818b95,1,
,,,,,,,0,273,273,12,1,X, , , , ,,1500,1.5,tasha1,001,2021-08-17_16h21.27.366,natb3,2021.2.3,Win32,58.5994726,60f71c21c01393248bc25db1,09dp1ryuik3u,6107d0959f7c4c3641818b95,1,
,,,,,,,0,274,274,240,1,F, , , , ,space,2500,2.5,tasha1,001,2021-08-17_16h21.27.366,natb3,2021.2.3,Win32,58.5994726,60f71c21c01393248bc25db1,09dp1ryuik3u,6107d0959f7c4c3641818b95,1,
,,,,,,,0,275,275,43,1,X, ,6, ,2,,2500,2.5,tasha1,001,2021-08-17_16h21.27.366,natb3,2021.2.3,Win32,58.5994726,60f71c21c01393248bc25db1,09dp1ryuik3u,6107d0959f7c4c3641818b95,1,
,,,,,,,0,276,276,185,1,Y, , , , ,space,2500,2.5,tasha1,001,2021-08-17_16h21.27.366,natb3,2021.2.3,Win32,58.5994726,60f71c21c01393248bc25db1,09dp1ryuik3u,6107d0959f7c4c3641818b95,1,
,,,,,,,0,277,277,324,1,Q, , , , ,space,2000,2,tasha1,001,2021-08-17_16h21.27.366,natb3,2021.2.3,Win32,58.5994726,60f71c21c01393248bc25db1,09dp1ryuik3u,6107d0959f7c4c3641818b95,1,
,,,,,,,0,278,278,330,1,T, , , , ,space,2500,2.5,tasha1,001,2021-08-17_16h21.27.366,natb3,2021.2.3,Win32,58.5994726,60f71c21c01393248bc25db1,09dp1ryuik3u,6107d0959f7c4c3641818b95,1,
,,,,,,,0,279,279,157,1,A, , , , ,space,2500,2.5,tasha1,001,2021-08-17_16h21.27.366,natb3,2021.2.3,Win32,58.5994726,60f71c21c01393248bc25db1,09dp1ryuik3u,6107d0959f7c4c3641818b95,1,
,,,,,,,0,280,280,309,1,H, , , , ,space,2500,2.5,tasha1,001,2021-08-17_16h21.27.366,natb3,2021.2.3,Win32,58.5994726,60f71c21c01393248bc25db1,09dp1ryuik3u,6107d0959f7c4c3641818b95,1,
,,,,,,,0,281,281,331,1,Y, , , , ,space,2500,2.5,tasha1,001,2021-08-17_16h21.27.366,natb3,2021.2.3,Win32,58.5994726,60f71c21c01393248bc25db1,09dp1ryuik3u,6107d0959f7c4c3641818b95,1,
,,,,,,,0,282,282,11,1,P, , , , ,space,2500,2.5,tasha1,001,2021-08-17_16h21.27.366,natb3,2021.2.3,Win32,58.5994726,60f71c21c01393248bc25db1,09dp1ryuik3u,6107d0959f7c4c3641818b95,1,
,,,,,,,0,283,283,314,1,L, , , , ,space,1500,1.5,tasha1,001,2021-08-17_16h21.27.366,natb3,2021.2.3,Win32,58.5994726,60f71c21c01393248bc25db1,09dp1ryuik3u,6107d0959f7c4c3641818b95,1,
,,,,,,,0,284,284,323,1,M, , , , ,space,2500,2.5,tasha1,001,2021-08-17_16h21.27.366,natb3,2021.2.3,Win32,58.5994726,60f71c21c01393248bc25db1,09dp1ryuik3u,6107d0959f7c4c3641818b95,1,
,,,,,,,0,285,285,268,1,X,6, ,3, ,,2500,2.5,tasha1,001,2021-08-17_16h21.27.366,natb3,2021.2.3,Win32,58.5994726,60f71c21c01393248bc25db1,09dp1ryuik3u,6107d0959f7c4c3641818b95,1,
,,,,,,,0,286,286,293,1,R, , , , ,space,2500,2.5,tasha1,001,2021-08-17_16h21.27.366,natb3,2021.2.3,Win32,58.5994726,60f71c21c01393248bc25db1,09dp1ryuik3u,6107d0959f7c4c3641818b95,1,
,,,,,,,0,287,287,328,1,R, , , , ,space,1500,1.5,tasha1,001,2021-08-17_16h21.27.366,natb3,2021.2.3,Win32,58.5994726,60f71c21c01393248bc25db1,09dp1ryuik3u,6107d0959f7c4c3641818b95,1,
,,,,,,,0,288,288,265,1,I, , , , ,space,2000,2,tasha1,001,2021-08-17_16h21.27.366,natb3,2021.2.3,Win32,58.5994726,60f71c21c01393248bc25db1,09dp1ryuik3u,6107d0959f7c4c3641818b95,1,
,,,,,,,0,289,289,38,1,R, , , , ,space,2500,2.5,tasha1,001,2021-08-17_16h21.27.366,natb3,2021.2.3,Win32,58.5994726,60f71c21c01393248bc25db1,09dp1ryuik3u,6107d0959f7c4c3641818b95,1,
,,,,,,,0,290,290,168,1,X, , , , ,,2500,2.5,tasha1,001,2021-08-17_16h21.27.366,natb3,2021.2.3,Win32,58.5994726,60f71c21c01393248bc25db1,09dp1ryuik3u,6107d0959f7c4c3641818b95,1,
,,,,,,,0,291,291,266,1,O, , , , ,space,1500,1.5,tasha1,001,2021-08-17_16h21.27.366,natb3,2021.2.3,Win32,58.5994726,60f71c21c01393248bc25db1,09dp1ryuik3u,6107d0959f7c4c3641818b95,1,
,,,,,,,0,292,292,8,1,U, , , , ,space,1500,1.5,tasha1,001,2021-08-17_16h21.27.366,natb3,2021.2.3,Win32,58.5994726,60f71c21c01393248bc25db1,09dp1ryuik3u,6107d0959f7c4c3641818b95,1,
,,,,,,,0,293,293,173,1,V, , , , ,space,1500,1.5,tasha1,001,2021-08-17_16h21.27.366,natb3,2021.2.3,Win32,58.5994726,60f71c21c01393248bc25db1,09dp1ryuik3u,6107d0959f7c4c3641818b95,1,
,,,,,,,0,294,294,158,1,X, , , , ,,1500,1.5,tasha1,001,2021-08-17_16h21.27.366,natb3,2021.2.3,Win32,58.5994726,60f71c21c01393248bc25db1,09dp1ryuik3u,6107d0959f7c4c3641818b95,1,
,,,,,,,0,295,295,165,1,J, , , , ,space,2500,2.5,tasha1,001,2021-08-17_16h21.27.366,natb3,2021.2.3,Win32,58.5994726,60f71c21c01393248bc25db1,09dp1ryuik3u,6107d0959f7c4c3641818b95,1,
,,,,,,,0,296,296,258,1,E, , , , ,space,1500,1.5,tasha1,001,2021-08-17_16h21.27.366,natb3,2021.2.3,Win32,58.5994726,60f71c21c01393248bc25db1,09dp1ryuik3u,6107d0959f7c4c3641818b95,1,
,,,,,,,0,297,297,90,1,K, , , , ,space,2000,2,tasha1,001,2021-08-17_16h21.27.366,natb3,2021.2.3,Win32,58.5994726,60f71c21c01393248bc25db1,09dp1ryuik3u,6107d0959f7c4c3641818b95,1,
,,,,,,,0,298,298,175,1,X,7, ,4,2,,1500,1.5,tasha1,001,2021-08-17_16h21.27.366,natb3,2021.2.3,Win32,58.5994726,60f71c21c01393248bc25db1,09dp1ryuik3u,6107d0959f7c4c3641818b95,1,
,,,,,,,0,299,299,217,1,T, , , , ,space,2500,2.5,tasha1,001,2021-08-17_16h21.27.366,natb3,2021.2.3,Win32,58.5994726,60f71c21c01393248bc25db1,09dp1ryuik3u,6107d0959f7c4c3641818b95,1,
,,,,,,,0,300,300,33,1,X, , , , ,,1500,1.5,tasha1,001,2021-08-17_16h21.27.366,natb3,2021.2.3,Win32,58.5994726,60f71c21c01393248bc25db1,09dp1ryuik3u,6107d0959f7c4c3641818b95,1,
,,,,,,,0,301,301,75,1,U, , , , ,space,1500,1.5,tasha1,001,2021-08-17_16h21.27.366,natb3,2021.2.3,Win32,58.5994726,60f71c21c01393248bc25db1,09dp1ryuik3u,6107d0959f7c4c3641818b95,1,
,,,,,,,0,302,302,48,1,A, , , , ,space,2500,2.5,tasha1,001,2021-08-17_16h21.27.366,natb3,2021.2.3,Win32,58.5994726,60f71c21c01393248bc25db1,09dp1ryuik3u,6107d0959f7c4c3641818b95,1,
,,,,,,,0,303,303,317,1,C, , , , ,space,2000,2,tasha1,001,2021-08-17_16h21.27.366,natb3,2021.2.3,Win32,58.5994726,60f71c21c01393248bc25db1,09dp1ryuik3u,6107d0959f7c4c3641818b95,1,
,,,,,,,0,304,304,81,1,S, , , , ,space,2000,2,tasha1,001,2021-08-17_16h21.27.366,natb3,2021.2.3,Win32,58.5994726,60f71c21c01393248bc25db1,09dp1ryuik3u,6107d0959f7c4c3641818b95,1,
,,,,,,,0,305,305,141,1,X,1, ,4,6,,1500,1.5,tasha1,001,2021-08-17_16h21.27.366,natb3,2021.2.3,Win32,58.5994726,60f71c21c01393248bc25db1,09dp1ryuik3u,6107d0959f7c4c3641818b95,1,
,,,,,,,0,306,306,63,1,B, , , , ,space,2000,2,tasha1,001,2021-08-17_16h21.27.366,natb3,2021.2.3,Win32,58.5994726,60f71c21c01393248bc25db1,09dp1ryuik3u,6107d0959f7c4c3641818b95,1,
,,,,,,,0,307,307,4,1,X, , , , ,,2000,2,tasha1,001,2021-08-17_16h21.27.366,natb3,2021.2.3,Win32,58.5994726,60f71c21c01393248bc25db1,09dp1ryuik3u,6107d0959f7c4c3641818b95,1,
,,,,,,,0,308,308,98,1,X, , , , ,,2500,2.5,tasha1,001,2021-08-17_16h21.27.366,natb3,2021.2.3,Win32,58.5994726,60f71c21c01393248bc25db1,09dp1ryuik3u,6107d0959f7c4c3641818b95,1,
,,,,,,,0,309,309,73,1,Y, , , , ,space,2000,2,tasha1,001,2021-08-17_16h21.27.366,natb3,2021.2.3,Win32,58.5994726,60f71c21c01393248bc25db1,09dp1ryuik3u,6107d0959f7c4c3641818b95,1,
,,,,,,,0,310,310,260,1,R, , , , ,space,2000,2,tasha1,001,2021-08-17_16h21.27.366,natb3,2021.2.3,Win32,58.5994726,60f71c21c01393248bc25db1,09dp1ryuik3u,6107d0959f7c4c3641818b95,1,
,,,,,,,0,311,311,322,1,X, , ,1,6,,2000,2,tasha1,001,2021-08-17_16h21.27.366,natb3,2021.2.3,Win32,58.5994726,60f71c21c01393248bc25db1,09dp1ryuik3u,6107d0959f7c4c3641818b95,1,
,,,,,,,0,312,312,15,1,X, , , , ,,1500,1.5,tasha1,001,2021-08-17_16h21.27.366,natb3,2021.2.3,Win32,58.5994726,60f71c21c01393248bc25db1,09dp1ryuik3u,6107d0959f7c4c3641818b95,1,
,,,,,,,0,313,313,249,1,C, , , , ,space,2000,2,tasha1,001,2021-08-17_16h21.27.366,natb3,2021.2.3,Win32,58.5994726,60f71c21c01393248bc25db1,09dp1ryuik3u,6107d0959f7c4c3641818b95,1,
,,,,,,,0,314,314,127,1,S, , , , ,space,2500,2.5,tasha1,001,2021-08-17_16h21.27.366,natb3,2021.2.3,Win32,58.5994726,60f71c21c01393248bc25db1,09dp1ryuik3u,6107d0959f7c4c3641818b95,1,
,,,,,,,0,315,315,311,1,X,1,2,7,3,,2500,2.5,tasha1,001,2021-08-17_16h21.27.366,natb3,2021.2.3,Win32,58.5994726,60f71c21c01393248bc25db1,09dp1ryuik3u,6107d0959f7c4c3641818b95,1,
,,,,,,,0,316,316,196,1,F, , , , ,space,1500,1.5,tasha1,001,2021-08-17_16h21.27.366,natb3,2021.2.3,Win32,58.5994726,60f71c21c01393248bc25db1,09dp1ryuik3u,6107d0959f7c4c3641818b95,1,
,,,,,,,0,317,317,188,1,I, , , , ,space,2500,2.5,tasha1,001,2021-08-17_16h21.27.366,natb3,2021.2.3,Win32,58.5994726,60f71c21c01393248bc25db1,09dp1ryuik3u,6107d0959f7c4c3641818b95,1,
,,,,,,,0,318,318,218,1,X,1,3, ,8,,1500,1.5,tasha1,001,2021-08-17_16h21.27.366,natb3,2021.2.3,Win32,58.5994726,60f71c21c01393248bc25db1,09dp1ryuik3u,6107d0959f7c4c3641818b95,1,
,,,,,,,0,319,319,66,1,X, ,4,7, ,,2000,2,tasha1,001,2021-08-17_16h21.27.366,natb3,2021.2.3,Win32,58.5994726,60f71c21c01393248bc25db1,09dp1ryuik3u,6107d0959f7c4c3641818b95,1,
,,,,,,,0,320,320,156,1,P, , , , ,space,1500,1.5,tasha1,001,2021-08-17_16h21.27.366,natb3,2021.2.3,Win32,58.5994726,60f71c21c01393248bc25db1,09dp1ryuik3u,6107d0959f7c4c3641818b95,1,
,,,,,,,0,321,321,29,1,B, , , , ,space,1500,1.5,tasha1,001,2021-08-17_16h21.27.366,natb3,2021.2.3,Win32,58.5994726,60f71c21c01393248bc25db1,09dp1ryuik3u,6107d0959f7c4c3641818b95,1,
,,,,,,,0,322,322,150,1,T, , , , ,space,2500,2.5,tasha1,001,2021-08-17_16h21.27.366,natb3,2021.2.3,Win32,58.5994726,60f71c21c01393248bc25db1,09dp1ryuik3u,6107d0959f7c4c3641818b95,1,
,,,,,,,0,323,323,124,1,P, , , , ,space,2000,2,tasha1,001,2021-08-17_16h21.27.366,natb3,2021.2.3,Win32,58.5994726,60f71c21c01393248bc25db1,09dp1ryuik3u,6107d0959f7c4c3641818b95,1,
,,,,,,,0,324,324,53,1,G, , , , ,space,2500,2.5,tasha1,001,2021-08-17_16h21.27.366,natb3,2021.2.3,Win32,58.5994726,60f71c21c01393248bc25db1,09dp1ryuik3u,6107d0959f7c4c3641818b95,1,
,,,,,,,0,325,325,243,1,X, , , , ,,2500,2.5,tasha1,001,2021-08-17_16h21.27.366,natb3,2021.2.3,Win32,58.5994726,60f71c21c01393248bc25db1,09dp1ryuik3u,6107d0959f7c4c3641818b95,1,
,,,,,,,0,326,326,222,1,O, , , , ,space,2000,2,tasha1,001,2021-08-17_16h21.27.366,natb3,2021.2.3,Win32,58.5994726,60f71c21c01393248bc25db1,09dp1ryuik3u,6107d0959f7c4c3641818b95,1,
,,,,,,,0,327,327,117,1,T, , , , ,space,2500,2.5,tasha1,001,2021-08-17_16h21.27.366,natb3,2021.2.3,Win32,58.5994726,60f71c21c01393248bc25db1,09dp1ryuik3u,6107d0959f7c4c3641818b95,1,
,,,,,,,0,328,328,273,1,X, , , , ,,2000,2,tasha1,001,2021-08-17_16h21.27.366,natb3,2021.2.3,Win32,58.5994726,60f71c21c01393248bc25db1,09dp1ryuik3u,6107d0959f7c4c3641818b95,1,
,,,,,,,0,329,329,179,1,X, ,9, ,2,,1500,1.5,tasha1,001,2021-08-17_16h21.27.366,natb3,2021.2.3,Win32,58.5994726,60f71c21c01393248bc25db1,09dp1ryuik3u,6107d0959f7c4c3641818b95,1,
,,,,,,,0,330,330,142,1,N, , , , ,space,2500,2.5,tasha1,001,2021-08-17_16h21.27.366,natb3,2021.2.3,Win32,58.5994726,60f71c21c01393248bc25db1,09dp1ryuik3u,6107d0959f7c4c3641818b95,1,
,,,,,,,0,331,331,149,1,R, , , , ,space,2000,2,tasha1,001,2021-08-17_16h21.27.366,natb3,2021.2.3,Win32,58.5994726,60f71c21c01393248bc25db1,09dp1ryuik3u,6107d0959f7c4c3641818b95,1,
,,,,,,,0,332,332,275,1,G, , , , ,space,1500,1.5,tasha1,001,2021-08-17_16h21.27.366,natb3,2021.2.3,Win32,58.5994726,60f71c21c01393248bc25db1,09dp1ryuik3u,6107d0959f7c4c3641818b95,1,
,,,,,,,0,333,333,86,1,G, , , , ,space,2000,2,tasha1,001,2021-08-17_16h21.27.366,natb3,2021.2.3,Win32,58.5994726,60f71c21c01393248bc25db1,09dp1ryuik3u,6107d0959f7c4c3641818b95,1,
,,,,,,,0,334,334,308,1,G, , , , ,space,1500,1.5,tasha1,001,2021-08-17_16h21.27.366,natb3,2021.2.3,Win32,58.5994726,60f71c21c01393248bc25db1,09dp1ryuik3u,6107d0959f7c4c3641818b95,1,
,,,,,,,0,335,335,52,1,F, , , , ,space,1500,1.5,tasha1,001,2021-08-17_16h21.27.366,natb3,2021.2.3,Win32,58.5994726,60f71c21c01393248bc25db1,09dp1ryuik3u,6107d0959f7c4c3641818b95,1,
