key_resp_2.keys,key_resp_2.rt,key_resp_3.keys,key_resp_3.rt,key_resp.keys,key_resp_4.keys,trials.thisRepN,trials.thisTrialN,trials.thisN,trials.thisIndex,trials.ran,stimulus,distractor1,distractor2,distractor3,distractor4,CorrAns,isi_duration,isi_dur_in_seconds,participant,session,date,expName,psychopyVersion,OS,frameRate,PROLIFIC_PID,STUDY_ID,SESSION_ID,key_resp.rt,key_resp_4.rt
return,7.8509,space,14.3343,,,0,0,0,202,1,L, , , , ,space,2500,2.5,Visar,001,2021-08-19_16h23.25.171,natb3,2021.2.3,Win32,60.42661188,611e4473b1bc14664b7aa068,611e07ecdcc96256ae8d5b80,611e7759c581a7e27d53c2c3,,
,,,,,,0,1,1,6,1,Y, , , , ,space,2500,2.5,Visar,001,2021-08-19_16h23.25.171,natb3,2021.2.3,Win32,60.42661188,611e4473b1bc14664b7aa068,611e07ecdcc96256ae8d5b80,611e7759c581a7e27d53c2c3,,
,,,,space,,0,2,2,54,1,X, , , , ,,2000,2,Visar,001,2021-08-19_16h23.25.171,natb3,2021.2.3,Win32,60.42661188,611e4473b1bc14664b7aa068,611e07ecdcc96256ae8d5b80,611e7759c581a7e27d53c2c3,0.2792,
,,,,space,,0,3,3,147,1,E, , , , ,space,2000,2,Visar,001,2021-08-19_16h23.25.171,natb3,2021.2.3,Win32,60.42661188,611e4473b1bc14664b7aa068,611e07ecdcc96256ae8d5b80,611e7759c581a7e27d53c2c3,0.3832,
,,,,space,,0,4,4,91,1,L, , , , ,space,2000,2,Visar,001,2021-08-19_16h23.25.171,natb3,2021.2.3,Win32,60.42661188,611e4473b1bc14664b7aa068,611e07ecdcc96256ae8d5b80,611e7759c581a7e27d53c2c3,0.4601,
,,,,,,0,5,5,16,1,D, , , , ,space,1500,1.5,Visar,001,2021-08-19_16h23.25.171,natb3,2021.2.3,Win32,60.42661188,611e4473b1bc14664b7aa068,611e07ecdcc96256ae8d5b80,611e7759c581a7e27d53c2c3,,
,,,,,,0,6,6,320,1,B, , , , ,space,1500,1.5,Visar,001,2021-08-19_16h23.25.171,natb3,2021.2.3,Win32,60.42661188,611e4473b1bc14664b7aa068,611e07ecdcc96256ae8d5b80,611e7759c581a7e27d53c2c3,,
,,,,space,,0,7,7,163,1,G, , , , ,space,2500,2.5,Visar,001,2021-08-19_16h23.25.171,natb3,2021.2.3,Win32,60.42661188,611e4473b1bc14664b7aa068,611e07ecdcc96256ae8d5b80,611e7759c581a7e27d53c2c3,0.0235,
,,,,space,,0,8,8,225,1,E, , , , ,space,2000,2,Visar,001,2021-08-19_16h23.25.171,natb3,2021.2.3,Win32,60.42661188,611e4473b1bc14664b7aa068,611e07ecdcc96256ae8d5b80,611e7759c581a7e27d53c2c3,0.2366,
,,,,space,,0,9,9,39,1,X,6,2, , ,,1500,1.5,Visar,001,2021-08-19_16h23.25.171,natb3,2021.2.3,Win32,60.42661188,611e4473b1bc14664b7aa068,611e07ecdcc96256ae8d5b80,611e7759c581a7e27d53c2c3,0.2257,
,,,,space,,0,10,10,294,1,T, , , , ,space,2000,2,Visar,001,2021-08-19_16h23.25.171,natb3,2021.2.3,Win32,60.42661188,611e4473b1bc14664b7aa068,611e07ecdcc96256ae8d5b80,611e7759c581a7e27d53c2c3,0.7553,
,,,,space,,0,11,11,314,1,L, , , , ,space,1500,1.5,Visar,001,2021-08-19_16h23.25.171,natb3,2021.2.3,Win32,60.42661188,611e4473b1bc14664b7aa068,611e07ecdcc96256ae8d5b80,611e7759c581a7e27d53c2c3,0.3767,
,,,,space,,0,12,12,319,1,V, , , , ,space,2000,2,Visar,001,2021-08-19_16h23.25.171,natb3,2021.2.3,Win32,60.42661188,611e4473b1bc14664b7aa068,611e07ecdcc96256ae8d5b80,611e7759c581a7e27d53c2c3,0.2832,
,,,,space,,0,13,13,318,1,X, , , , ,,1500,1.5,Visar,001,2021-08-19_16h23.25.171,natb3,2021.2.3,Win32,60.42661188,611e4473b1bc14664b7aa068,611e07ecdcc96256ae8d5b80,611e7759c581a7e27d53c2c3,0.7246,
,,,,space,,0,14,14,273,1,X, , , , ,,2000,2,Visar,001,2021-08-19_16h23.25.171,natb3,2021.2.3,Win32,60.42661188,611e4473b1bc14664b7aa068,611e07ecdcc96256ae8d5b80,611e7759c581a7e27d53c2c3,0.3739,
,,,,,,0,15,15,184,1,T, , , , ,space,2000,2,Visar,001,2021-08-19_16h23.25.171,natb3,2021.2.3,Win32,60.42661188,611e4473b1bc14664b7aa068,611e07ecdcc96256ae8d5b80,611e7759c581a7e27d53c2c3,,
,,,,,,0,16,16,182,1,X, , , , ,,1500,1.5,Visar,001,2021-08-19_16h23.25.171,natb3,2021.2.3,Win32,60.42661188,611e4473b1bc14664b7aa068,611e07ecdcc96256ae8d5b80,611e7759c581a7e27d53c2c3,,
,,,,space,,0,17,17,143,1,M, , , , ,space,2500,2.5,Visar,001,2021-08-19_16h23.25.171,natb3,2021.2.3,Win32,60.42661188,611e4473b1bc14664b7aa068,611e07ecdcc96256ae8d5b80,611e7759c581a7e27d53c2c3,0.3679,
,,,,space,,0,18,18,284,1,V, , , , ,space,2500,2.5,Visar,001,2021-08-19_16h23.25.171,natb3,2021.2.3,Win32,60.42661188,611e4473b1bc14664b7aa068,611e07ecdcc96256ae8d5b80,611e7759c581a7e27d53c2c3,0.5832,
,,,,space,,0,19,19,173,1,V, , , , ,space,1500,1.5,Visar,001,2021-08-19_16h23.25.171,natb3,2021.2.3,Win32,60.42661188,611e4473b1bc14664b7aa068,611e07ecdcc96256ae8d5b80,611e7759c581a7e27d53c2c3,0.5008,
,,,,space,,0,20,20,36,1,W, , , , ,space,2000,2,Visar,001,2021-08-19_16h23.25.171,natb3,2021.2.3,Win32,60.42661188,611e4473b1bc14664b7aa068,611e07ecdcc96256ae8d5b80,611e7759c581a7e27d53c2c3,0.3343,
,,,,space,,0,21,21,131,1,G, , , , ,space,1500,1.5,Visar,001,2021-08-19_16h23.25.171,natb3,2021.2.3,Win32,60.42661188,611e4473b1bc14664b7aa068,611e07ecdcc96256ae8d5b80,611e7759c581a7e27d53c2c3,0.4174,
,,,,space,,0,22,22,193,1,S, , , , ,space,2500,2.5,Visar,001,2021-08-19_16h23.25.171,natb3,2021.2.3,Win32,60.42661188,611e4473b1bc14664b7aa068,611e07ecdcc96256ae8d5b80,611e7759c581a7e27d53c2c3,0.4013,
,,,,space,,0,23,23,151,1,Y, , , , ,space,2500,2.5,Visar,001,2021-08-19_16h23.25.171,natb3,2021.2.3,Win32,60.42661188,611e4473b1bc14664b7aa068,611e07ecdcc96256ae8d5b80,611e7759c581a7e27d53c2c3,0.3057,
,,,,,,0,24,24,141,1,X,1, ,4,6,,1500,1.5,Visar,001,2021-08-19_16h23.25.171,natb3,2021.2.3,Win32,60.42661188,611e4473b1bc14664b7aa068,611e07ecdcc96256ae8d5b80,611e7759c581a7e27d53c2c3,,
,,,,,,0,25,25,17,1,F, , , , ,space,2500,2.5,Visar,001,2021-08-19_16h23.25.171,natb3,2021.2.3,Win32,60.42661188,611e4473b1bc14664b7aa068,611e07ecdcc96256ae8d5b80,611e7759c581a7e27d53c2c3,,
,,,,space,,0,26,26,123,1,O, , , , ,space,1500,1.5,Visar,001,2021-08-19_16h23.25.171,natb3,2021.2.3,Win32,60.42661188,611e4473b1bc14664b7aa068,611e07ecdcc96256ae8d5b80,611e7759c581a7e27d53c2c3,0.3172,
,,,,space,,0,27,27,214,1,W, , , , ,space,2000,2,Visar,001,2021-08-19_16h23.25.171,natb3,2021.2.3,Win32,60.42661188,611e4473b1bc14664b7aa068,611e07ecdcc96256ae8d5b80,611e7759c581a7e27d53c2c3,0.4025,
,,,,space,,0,28,28,109,1,U, , , , ,space,1500,1.5,Visar,001,2021-08-19_16h23.25.171,natb3,2021.2.3,Win32,60.42661188,611e4473b1bc14664b7aa068,611e07ecdcc96256ae8d5b80,611e7759c581a7e27d53c2c3,0.3001,
,,,,,,0,29,29,207,1,X,9, ,2, ,,2500,2.5,Visar,001,2021-08-19_16h23.25.171,natb3,2021.2.3,Win32,60.42661188,611e4473b1bc14664b7aa068,611e07ecdcc96256ae8d5b80,611e7759c581a7e27d53c2c3,,
,,,,space,,0,30,30,9,1,I, , , , ,space,1500,1.5,Visar,001,2021-08-19_16h23.25.171,natb3,2021.2.3,Win32,60.42661188,611e4473b1bc14664b7aa068,611e07ecdcc96256ae8d5b80,611e7759c581a7e27d53c2c3,0.4995,
,,,,space,,0,31,31,119,1,Y, , , , ,space,2500,2.5,Visar,001,2021-08-19_16h23.25.171,natb3,2021.2.3,Win32,60.42661188,611e4473b1bc14664b7aa068,611e07ecdcc96256ae8d5b80,611e7759c581a7e27d53c2c3,0.3671,
,,,,space,,0,32,32,187,1,X, ,3,7,4,,1500,1.5,Visar,001,2021-08-19_16h23.25.171,natb3,2021.2.3,Win32,60.42661188,611e4473b1bc14664b7aa068,611e07ecdcc96256ae8d5b80,611e7759c581a7e27d53c2c3,0.3213,
,,,,space,,0,33,33,261,1,T, , , , ,space,2000,2,Visar,001,2021-08-19_16h23.25.171,natb3,2021.2.3,Win32,60.42661188,611e4473b1bc14664b7aa068,611e07ecdcc96256ae8d5b80,611e7759c581a7e27d53c2c3,0.6019,
,,,,space,,0,34,34,325,1,X, , , , ,,2500,2.5,Visar,001,2021-08-19_16h23.25.171,natb3,2021.2.3,Win32,60.42661188,611e4473b1bc14664b7aa068,611e07ecdcc96256ae8d5b80,611e7759c581a7e27d53c2c3,0.6374,
,,,,space,,0,35,35,275,1,G, , , , ,space,1500,1.5,Visar,001,2021-08-19_16h23.25.171,natb3,2021.2.3,Win32,60.42661188,611e4473b1bc14664b7aa068,611e07ecdcc96256ae8d5b80,611e7759c581a7e27d53c2c3,0.382,
,,,,space,,0,36,36,331,1,Y, , , , ,space,2500,2.5,Visar,001,2021-08-19_16h23.25.171,natb3,2021.2.3,Win32,60.42661188,611e4473b1bc14664b7aa068,611e07ecdcc96256ae8d5b80,611e7759c581a7e27d53c2c3,0.449,
,,,,space,,0,37,37,90,1,K, , , , ,space,2000,2,Visar,001,2021-08-19_16h23.25.171,natb3,2021.2.3,Win32,60.42661188,611e4473b1bc14664b7aa068,611e07ecdcc96256ae8d5b80,611e7759c581a7e27d53c2c3,0.6238,
,,,,space,,0,38,38,25,1,Z, , , , ,space,2500,2.5,Visar,001,2021-08-19_16h23.25.171,natb3,2021.2.3,Win32,60.42661188,611e4473b1bc14664b7aa068,611e07ecdcc96256ae8d5b80,611e7759c581a7e27d53c2c3,0.3351,
,,,,space,,0,39,39,185,1,Y, , , , ,space,2500,2.5,Visar,001,2021-08-19_16h23.25.171,natb3,2021.2.3,Win32,60.42661188,611e4473b1bc14664b7aa068,611e07ecdcc96256ae8d5b80,611e7759c581a7e27d53c2c3,0.9178,
,,,,,,0,40,40,45,1,O, , , , ,space,2000,2,Visar,001,2021-08-19_16h23.25.171,natb3,2021.2.3,Win32,60.42661188,611e4473b1bc14664b7aa068,611e07ecdcc96256ae8d5b80,611e7759c581a7e27d53c2c3,,
,,,,,,0,41,41,262,1,Y, , , , ,space,2500,2.5,Visar,001,2021-08-19_16h23.25.171,natb3,2021.2.3,Win32,60.42661188,611e4473b1bc14664b7aa068,611e07ecdcc96256ae8d5b80,611e7759c581a7e27d53c2c3,,
,,,,space,,0,42,42,72,1,T, , , , ,space,1500,1.5,Visar,001,2021-08-19_16h23.25.171,natb3,2021.2.3,Win32,60.42661188,611e4473b1bc14664b7aa068,611e07ecdcc96256ae8d5b80,611e7759c581a7e27d53c2c3,0.8851,
,,,,,,0,43,43,206,1,V, , , , ,space,2000,2,Visar,001,2021-08-19_16h23.25.171,natb3,2021.2.3,Win32,60.42661188,611e4473b1bc14664b7aa068,611e07ecdcc96256ae8d5b80,611e7759c581a7e27d53c2c3,,
,,,,,,0,44,44,285,1,B, , , , ,space,1500,1.5,Visar,001,2021-08-19_16h23.25.171,natb3,2021.2.3,Win32,60.42661188,611e4473b1bc14664b7aa068,611e07ecdcc96256ae8d5b80,611e7759c581a7e27d53c2c3,,
,,,,space,,0,45,45,70,1,E, , , , ,space,2500,2.5,Visar,001,2021-08-19_16h23.25.171,natb3,2021.2.3,Win32,60.42661188,611e4473b1bc14664b7aa068,611e07ecdcc96256ae8d5b80,611e7759c581a7e27d53c2c3,0.2842,
,,,,space,,0,46,46,162,1,X,1,6, ,2,,1500,1.5,Visar,001,2021-08-19_16h23.25.171,natb3,2021.2.3,Win32,60.42661188,611e4473b1bc14664b7aa068,611e07ecdcc96256ae8d5b80,611e7759c581a7e27d53c2c3,0.3007,
,,,,space,,0,47,47,98,1,X, , , , ,,2500,2.5,Visar,001,2021-08-19_16h23.25.171,natb3,2021.2.3,Win32,60.42661188,611e4473b1bc14664b7aa068,611e07ecdcc96256ae8d5b80,611e7759c581a7e27d53c2c3,0.5676,
,,,,space,,0,48,48,239,1,X, , , , ,,2000,2,Visar,001,2021-08-19_16h23.25.171,natb3,2021.2.3,Win32,60.42661188,611e4473b1bc14664b7aa068,611e07ecdcc96256ae8d5b80,611e7759c581a7e27d53c2c3,0.276,
,,,,space,,0,49,49,23,1,X,1, ,5, ,,2000,2,Visar,001,2021-08-19_16h23.25.171,natb3,2021.2.3,Win32,60.42661188,611e4473b1bc14664b7aa068,611e07ecdcc96256ae8d5b80,611e7759c581a7e27d53c2c3,0.2953,
,,,,space,,0,50,50,308,1,G, , , , ,space,1500,1.5,Visar,001,2021-08-19_16h23.25.171,natb3,2021.2.3,Win32,60.42661188,611e4473b1bc14664b7aa068,611e07ecdcc96256ae8d5b80,611e7759c581a7e27d53c2c3,0.3998,
,,,,space,,0,51,51,75,1,U, , , , ,space,1500,1.5,Visar,001,2021-08-19_16h23.25.171,natb3,2021.2.3,Win32,60.42661188,611e4473b1bc14664b7aa068,611e07ecdcc96256ae8d5b80,611e7759c581a7e27d53c2c3,0.4934,
,,,,space,,0,52,52,30,1,N, , , , ,space,2500,2.5,Visar,001,2021-08-19_16h23.25.171,natb3,2021.2.3,Win32,60.42661188,611e4473b1bc14664b7aa068,611e07ecdcc96256ae8d5b80,611e7759c581a7e27d53c2c3,0.4529,
,,,,,,0,53,53,74,1,X, ,4,3,2,,1500,1.5,Visar,001,2021-08-19_16h23.25.171,natb3,2021.2.3,Win32,60.42661188,611e4473b1bc14664b7aa068,611e07ecdcc96256ae8d5b80,611e7759c581a7e27d53c2c3,,
,,,,,,0,54,54,77,1,O, , , , ,space,2000,2,Visar,001,2021-08-19_16h23.25.171,natb3,2021.2.3,Win32,60.42661188,611e4473b1bc14664b7aa068,611e07ecdcc96256ae8d5b80,611e7759c581a7e27d53c2c3,,
,,,,space,,0,55,55,24,1,L, , , , ,space,2500,2.5,Visar,001,2021-08-19_16h23.25.171,natb3,2021.2.3,Win32,60.42661188,611e4473b1bc14664b7aa068,611e07ecdcc96256ae8d5b80,611e7759c581a7e27d53c2c3,0.6342,
,,,,space,,0,56,56,40,1,T, , , , ,space,1500,1.5,Visar,001,2021-08-19_16h23.25.171,natb3,2021.2.3,Win32,60.42661188,611e4473b1bc14664b7aa068,611e07ecdcc96256ae8d5b80,611e7759c581a7e27d53c2c3,0.3334,
,,,,,,0,57,57,51,1,X,7,5,8, ,,1500,1.5,Visar,001,2021-08-19_16h23.25.171,natb3,2021.2.3,Win32,60.42661188,611e4473b1bc14664b7aa068,611e07ecdcc96256ae8d5b80,611e7759c581a7e27d53c2c3,,
,,,,space,,0,58,58,203,1,X, , , , ,,2500,2.5,Visar,001,2021-08-19_16h23.25.171,natb3,2021.2.3,Win32,60.42661188,611e4473b1bc14664b7aa068,611e07ecdcc96256ae8d5b80,611e7759c581a7e27d53c2c3,0.3821,
,,,,space,,0,59,59,258,1,E, , , , ,space,1500,1.5,Visar,001,2021-08-19_16h23.25.171,natb3,2021.2.3,Win32,60.42661188,611e4473b1bc14664b7aa068,611e07ecdcc96256ae8d5b80,611e7759c581a7e27d53c2c3,0.5833,
,,,,space,,0,60,60,218,1,X,1,3, ,8,,1500,1.5,Visar,001,2021-08-19_16h23.25.171,natb3,2021.2.3,Win32,60.42661188,611e4473b1bc14664b7aa068,611e07ecdcc96256ae8d5b80,611e7759c581a7e27d53c2c3,0.5366,
,,,,space,,0,61,61,137,1,C, , , , ,space,2500,2.5,Visar,001,2021-08-19_16h23.25.171,natb3,2021.2.3,Win32,60.42661188,611e4473b1bc14664b7aa068,611e07ecdcc96256ae8d5b80,611e7759c581a7e27d53c2c3,0.5813,
,,,,space,,0,62,62,194,1,D, , , , ,space,2000,2,Visar,001,2021-08-19_16h23.25.171,natb3,2021.2.3,Win32,60.42661188,611e4473b1bc14664b7aa068,611e07ecdcc96256ae8d5b80,611e7759c581a7e27d53c2c3,0.4329,
,,,,space,,0,63,63,316,1,Z, , , , ,space,1500,1.5,Visar,001,2021-08-19_16h23.25.171,natb3,2021.2.3,Win32,60.42661188,611e4473b1bc14664b7aa068,611e07ecdcc96256ae8d5b80,611e7759c581a7e27d53c2c3,0.4353,
,,,,space,,0,64,64,79,1,P, , , , ,space,2000,2,Visar,001,2021-08-19_16h23.25.171,natb3,2021.2.3,Win32,60.42661188,611e4473b1bc14664b7aa068,611e07ecdcc96256ae8d5b80,611e7759c581a7e27d53c2c3,0.236,
,,,,,,0,65,65,60,1,X,7,3,5, ,,1500,1.5,Visar,001,2021-08-19_16h23.25.171,natb3,2021.2.3,Win32,60.42661188,611e4473b1bc14664b7aa068,611e07ecdcc96256ae8d5b80,611e7759c581a7e27d53c2c3,,
,,,,space,,0,66,66,89,1,X,3, , , ,,2000,2,Visar,001,2021-08-19_16h23.25.171,natb3,2021.2.3,Win32,60.42661188,611e4473b1bc14664b7aa068,611e07ecdcc96256ae8d5b80,611e7759c581a7e27d53c2c3,0.6006,
,,,,,,0,67,67,100,1,M, , , , ,space,2000,2,Visar,001,2021-08-19_16h23.25.171,natb3,2021.2.3,Win32,60.42661188,611e4473b1bc14664b7aa068,611e07ecdcc96256ae8d5b80,611e7759c581a7e27d53c2c3,,
,,,,space,,0,68,68,199,1,J, , , , ,space,2500,2.5,Visar,001,2021-08-19_16h23.25.171,natb3,2021.2.3,Win32,60.42661188,611e4473b1bc14664b7aa068,611e07ecdcc96256ae8d5b80,611e7759c581a7e27d53c2c3,0.302,
,,,,space,,0,69,69,130,1,F, , , , ,space,2000,2,Visar,001,2021-08-19_16h23.25.171,natb3,2021.2.3,Win32,60.42661188,611e4473b1bc14664b7aa068,611e07ecdcc96256ae8d5b80,611e7759c581a7e27d53c2c3,0.3007,
,,,,space,,0,70,70,215,1,E, , , , ,space,2500,2.5,Visar,001,2021-08-19_16h23.25.171,natb3,2021.2.3,Win32,60.42661188,611e4473b1bc14664b7aa068,611e07ecdcc96256ae8d5b80,611e7759c581a7e27d53c2c3,0.286,
,,,,space,,0,71,71,129,1,X,2,3,5, ,,1500,1.5,Visar,001,2021-08-19_16h23.25.171,natb3,2021.2.3,Win32,60.42661188,611e4473b1bc14664b7aa068,611e07ecdcc96256ae8d5b80,611e7759c581a7e27d53c2c3,0.2782,
,,,,space,,0,72,72,104,1,E, , , , ,space,2000,2,Visar,001,2021-08-19_16h23.25.171,natb3,2021.2.3,Win32,60.42661188,611e4473b1bc14664b7aa068,611e07ecdcc96256ae8d5b80,611e7759c581a7e27d53c2c3,0.9254,
,,,,space,,0,73,73,136,1,Z, , , , ,space,2500,2.5,Visar,001,2021-08-19_16h23.25.171,natb3,2021.2.3,Win32,60.42661188,611e4473b1bc14664b7aa068,611e07ecdcc96256ae8d5b80,611e7759c581a7e27d53c2c3,0.4018,
,,,,space,,0,74,74,200,1,X,7, ,5,3,,1500,1.5,Visar,001,2021-08-19_16h23.25.171,natb3,2021.2.3,Win32,60.42661188,611e4473b1bc14664b7aa068,611e07ecdcc96256ae8d5b80,611e7759c581a7e27d53c2c3,0.4673,
,,,,space,,0,75,75,164,1,H, , , , ,space,2500,2.5,Visar,001,2021-08-19_16h23.25.171,natb3,2021.2.3,Win32,60.42661188,611e4473b1bc14664b7aa068,611e07ecdcc96256ae8d5b80,611e7759c581a7e27d53c2c3,0.3675,
,,,,space,,0,76,76,181,1,E, , , , ,space,1500,1.5,Visar,001,2021-08-19_16h23.25.171,natb3,2021.2.3,Win32,60.42661188,611e4473b1bc14664b7aa068,611e07ecdcc96256ae8d5b80,611e7759c581a7e27d53c2c3,0.3339,
,,,,space,,0,77,77,311,1,X,1,2,7,3,,2500,2.5,Visar,001,2021-08-19_16h23.25.171,natb3,2021.2.3,Win32,60.42661188,611e4473b1bc14664b7aa068,611e07ecdcc96256ae8d5b80,611e7759c581a7e27d53c2c3,0.6676,
,,,,,,0,78,78,322,1,X, , ,1,6,,2000,2,Visar,001,2021-08-19_16h23.25.171,natb3,2021.2.3,Win32,60.42661188,611e4473b1bc14664b7aa068,611e07ecdcc96256ae8d5b80,611e7759c581a7e27d53c2c3,,
,,,,,,0,79,79,201,1,K, , , , ,space,1500,1.5,Visar,001,2021-08-19_16h23.25.171,natb3,2021.2.3,Win32,60.42661188,611e4473b1bc14664b7aa068,611e07ecdcc96256ae8d5b80,611e7759c581a7e27d53c2c3,,
,,,,,,0,80,80,312,1,K, , , , ,space,2000,2,Visar,001,2021-08-19_16h23.25.171,natb3,2021.2.3,Win32,60.42661188,611e4473b1bc14664b7aa068,611e07ecdcc96256ae8d5b80,611e7759c581a7e27d53c2c3,,
,,,,space,,0,81,81,279,1,K, , , , ,space,2500,2.5,Visar,001,2021-08-19_16h23.25.171,natb3,2021.2.3,Win32,60.42661188,611e4473b1bc14664b7aa068,611e07ecdcc96256ae8d5b80,611e7759c581a7e27d53c2c3,0.3979,
,,,,space,,0,82,82,300,1,O, , , , ,space,2500,2.5,Visar,001,2021-08-19_16h23.25.171,natb3,2021.2.3,Win32,60.42661188,611e4473b1bc14664b7aa068,611e07ecdcc96256ae8d5b80,611e7759c581a7e27d53c2c3,0.3204,
,,,,,,0,83,83,233,1,X, ,2, ,5,,1500,1.5,Visar,001,2021-08-19_16h23.25.171,natb3,2021.2.3,Win32,60.42661188,611e4473b1bc14664b7aa068,611e07ecdcc96256ae8d5b80,611e7759c581a7e27d53c2c3,,
,,,,space,,0,84,84,59,1,Z, , , , ,space,2000,2,Visar,001,2021-08-19_16h23.25.171,natb3,2021.2.3,Win32,60.42661188,611e4473b1bc14664b7aa068,611e07ecdcc96256ae8d5b80,611e7759c581a7e27d53c2c3,0.3511,
,,,,space,,0,85,85,115,1,R, , , , ,space,1500,1.5,Visar,001,2021-08-19_16h23.25.171,natb3,2021.2.3,Win32,60.42661188,611e4473b1bc14664b7aa068,611e07ecdcc96256ae8d5b80,611e7759c581a7e27d53c2c3,0.3004,
,,,,space,,0,86,86,47,1,P, , , , ,space,2000,2,Visar,001,2021-08-19_16h23.25.171,natb3,2021.2.3,Win32,60.42661188,611e4473b1bc14664b7aa068,611e07ecdcc96256ae8d5b80,611e7759c581a7e27d53c2c3,0.6942,
,,,,space,,0,87,87,241,1,G, , , , ,space,2500,2.5,Visar,001,2021-08-19_16h23.25.171,natb3,2021.2.3,Win32,60.42661188,611e4473b1bc14664b7aa068,611e07ecdcc96256ae8d5b80,611e7759c581a7e27d53c2c3,0.3342,
,,,,,,0,88,88,122,1,X,1, , ,8,,1500,1.5,Visar,001,2021-08-19_16h23.25.171,natb3,2021.2.3,Win32,60.42661188,611e4473b1bc14664b7aa068,611e07ecdcc96256ae8d5b80,611e7759c581a7e27d53c2c3,,
,,,,space,,0,89,89,303,1,A, , , , ,space,2000,2,Visar,001,2021-08-19_16h23.25.171,natb3,2021.2.3,Win32,60.42661188,611e4473b1bc14664b7aa068,611e07ecdcc96256ae8d5b80,611e7759c581a7e27d53c2c3,0.3999,
,,,,,,0,90,90,65,1,M, , , , ,space,1500,1.5,Visar,001,2021-08-19_16h23.25.171,natb3,2021.2.3,Win32,60.42661188,611e4473b1bc14664b7aa068,611e07ecdcc96256ae8d5b80,611e7759c581a7e27d53c2c3,,
,,,,space,,0,91,91,87,1,H, , , , ,space,1500,1.5,Visar,001,2021-08-19_16h23.25.171,natb3,2021.2.3,Win32,60.42661188,611e4473b1bc14664b7aa068,611e07ecdcc96256ae8d5b80,611e7759c581a7e27d53c2c3,0.3624,
,,,,space,,0,92,92,78,1,X, , , , ,,2000,2,Visar,001,2021-08-19_16h23.25.171,natb3,2021.2.3,Win32,60.42661188,611e4473b1bc14664b7aa068,611e07ecdcc96256ae8d5b80,611e7759c581a7e27d53c2c3,0.5006,
,,,,space,,0,93,93,179,1,X, ,9, ,2,,1500,1.5,Visar,001,2021-08-19_16h23.25.171,natb3,2021.2.3,Win32,60.42661188,611e4473b1bc14664b7aa068,611e07ecdcc96256ae8d5b80,611e7759c581a7e27d53c2c3,0.4175,
,,,,space,,0,94,94,226,1,R, , , , ,space,2000,2,Visar,001,2021-08-19_16h23.25.171,natb3,2021.2.3,Win32,60.42661188,611e4473b1bc14664b7aa068,611e07ecdcc96256ae8d5b80,611e7759c581a7e27d53c2c3,0.5343,
,,,,space,,0,95,95,242,1,H, , , , ,space,2500,2.5,Visar,001,2021-08-19_16h23.25.171,natb3,2021.2.3,Win32,60.42661188,611e4473b1bc14664b7aa068,611e07ecdcc96256ae8d5b80,611e7759c581a7e27d53c2c3,0.5065,
,,,,,,0,96,96,268,1,X,6, ,3, ,,2500,2.5,Visar,001,2021-08-19_16h23.25.171,natb3,2021.2.3,Win32,60.42661188,611e4473b1bc14664b7aa068,611e07ecdcc96256ae8d5b80,611e7759c581a7e27d53c2c3,,
,,,,space,,0,97,97,310,1,J, , , , ,space,2500,2.5,Visar,001,2021-08-19_16h23.25.171,natb3,2021.2.3,Win32,60.42661188,611e4473b1bc14664b7aa068,611e07ecdcc96256ae8d5b80,611e7759c581a7e27d53c2c3,0.7747,
,,,,space,,0,98,98,297,1,U, , , , ,space,2000,2,Visar,001,2021-08-19_16h23.25.171,natb3,2021.2.3,Win32,60.42661188,611e4473b1bc14664b7aa068,611e07ecdcc96256ae8d5b80,611e7759c581a7e27d53c2c3,0.4915,
,,,,space,,0,99,99,135,1,K, , , , ,space,1500,1.5,Visar,001,2021-08-19_16h23.25.171,natb3,2021.2.3,Win32,60.42661188,611e4473b1bc14664b7aa068,611e07ecdcc96256ae8d5b80,611e7759c581a7e27d53c2c3,0.4337,
,,,,space,,0,100,100,121,1,I, , , , ,space,2000,2,Visar,001,2021-08-19_16h23.25.171,natb3,2021.2.3,Win32,60.42661188,611e4473b1bc14664b7aa068,611e07ecdcc96256ae8d5b80,611e7759c581a7e27d53c2c3,0.5887,
,,,,space,,0,101,101,55,1,H, , , , ,space,2500,2.5,Visar,001,2021-08-19_16h23.25.171,natb3,2021.2.3,Win32,60.42661188,611e4473b1bc14664b7aa068,611e07ecdcc96256ae8d5b80,611e7759c581a7e27d53c2c3,0.9091,
,,,,space,,0,102,102,67,1,Q, , , , ,space,2000,2,Visar,001,2021-08-19_16h23.25.171,natb3,2021.2.3,Win32,60.42661188,611e4473b1bc14664b7aa068,611e07ecdcc96256ae8d5b80,611e7759c581a7e27d53c2c3,0.4052,
,,,,space,,0,103,103,167,1,K, , , , ,space,1500,1.5,Visar,001,2021-08-19_16h23.25.171,natb3,2021.2.3,Win32,60.42661188,611e4473b1bc14664b7aa068,611e07ecdcc96256ae8d5b80,611e7759c581a7e27d53c2c3,0.4669,
,,,,space,,0,104,104,85,1,F, , , , ,space,2500,2.5,Visar,001,2021-08-19_16h23.25.171,natb3,2021.2.3,Win32,60.42661188,611e4473b1bc14664b7aa068,611e07ecdcc96256ae8d5b80,611e7759c581a7e27d53c2c3,0.3344,
,,,,space,,0,105,105,21,1,J, , , , ,space,1500,1.5,Visar,001,2021-08-19_16h23.25.171,natb3,2021.2.3,Win32,60.42661188,611e4473b1bc14664b7aa068,611e07ecdcc96256ae8d5b80,611e7759c581a7e27d53c2c3,0.4875,
,,,,space,,0,106,106,50,1,D, , , , ,space,1500,1.5,Visar,001,2021-08-19_16h23.25.171,natb3,2021.2.3,Win32,60.42661188,611e4473b1bc14664b7aa068,611e07ecdcc96256ae8d5b80,611e7759c581a7e27d53c2c3,0.4008,
,,,,space,,0,107,107,288,1,M, , , , ,space,1500,1.5,Visar,001,2021-08-19_16h23.25.171,natb3,2021.2.3,Win32,60.42661188,611e4473b1bc14664b7aa068,611e07ecdcc96256ae8d5b80,611e7759c581a7e27d53c2c3,0.3339,
,,,,space,,0,108,108,274,1,F, , , , ,space,2000,2,Visar,001,2021-08-19_16h23.25.171,natb3,2021.2.3,Win32,60.42661188,611e4473b1bc14664b7aa068,611e07ecdcc96256ae8d5b80,611e7759c581a7e27d53c2c3,0.4505,
,,,,space,,0,109,109,177,1,M, , , , ,space,2500,2.5,Visar,001,2021-08-19_16h23.25.171,natb3,2021.2.3,Win32,60.42661188,611e4473b1bc14664b7aa068,611e07ecdcc96256ae8d5b80,611e7759c581a7e27d53c2c3,0.318,
,,,,space,,0,110,110,92,1,Z, , , , ,space,1500,1.5,Visar,001,2021-08-19_16h23.25.171,natb3,2021.2.3,Win32,60.42661188,611e4473b1bc14664b7aa068,611e07ecdcc96256ae8d5b80,611e7759c581a7e27d53c2c3,0.3511,
,,,,space,,0,111,111,244,1,J, , , , ,space,1500,1.5,Visar,001,2021-08-19_16h23.25.171,natb3,2021.2.3,Win32,60.42661188,611e4473b1bc14664b7aa068,611e07ecdcc96256ae8d5b80,611e7759c581a7e27d53c2c3,0.3176,
,,,,space,,0,112,112,272,1,D, , , , ,space,2000,2,Visar,001,2021-08-19_16h23.25.171,natb3,2021.2.3,Win32,60.42661188,611e4473b1bc14664b7aa068,611e07ecdcc96256ae8d5b80,611e7759c581a7e27d53c2c3,0.3018,
,,,,space,,0,113,113,189,1,O, , , , ,space,1500,1.5,Visar,001,2021-08-19_16h23.25.171,natb3,2021.2.3,Win32,60.42661188,611e4473b1bc14664b7aa068,611e07ecdcc96256ae8d5b80,611e7759c581a7e27d53c2c3,0.351,
,,,,space,,0,114,114,139,1,V, , , , ,space,2000,2,Visar,001,2021-08-19_16h23.25.171,natb3,2021.2.3,Win32,60.42661188,611e4473b1bc14664b7aa068,611e07ecdcc96256ae8d5b80,611e7759c581a7e27d53c2c3,0.3514,
,,,,space,,0,115,115,3,1,R, , , , ,space,2000,2,Visar,001,2021-08-19_16h23.25.171,natb3,2021.2.3,Win32,60.42661188,611e4473b1bc14664b7aa068,611e07ecdcc96256ae8d5b80,611e7759c581a7e27d53c2c3,0.3008,
,,,,space,,0,116,116,73,1,Y, , , , ,space,2000,2,Visar,001,2021-08-19_16h23.25.171,natb3,2021.2.3,Win32,60.42661188,611e4473b1bc14664b7aa068,611e07ecdcc96256ae8d5b80,611e7759c581a7e27d53c2c3,0.3024,
,,,,space,,0,117,117,176,1,N, , , , ,space,1500,1.5,Visar,001,2021-08-19_16h23.25.171,natb3,2021.2.3,Win32,60.42661188,611e4473b1bc14664b7aa068,611e07ecdcc96256ae8d5b80,611e7759c581a7e27d53c2c3,0.3384,
,,,,space,,0,118,118,53,1,G, , , , ,space,2500,2.5,Visar,001,2021-08-19_16h23.25.171,natb3,2021.2.3,Win32,60.42661188,611e4473b1bc14664b7aa068,611e07ecdcc96256ae8d5b80,611e7759c581a7e27d53c2c3,0.3852,
,,,,space,,0,119,119,26,1,C, , , , ,space,2000,2,Visar,001,2021-08-19_16h23.25.171,natb3,2021.2.3,Win32,60.42661188,611e4473b1bc14664b7aa068,611e07ecdcc96256ae8d5b80,611e7759c581a7e27d53c2c3,0.5107,
,,,,space,,0,120,120,76,1,I, , , , ,space,2000,2,Visar,001,2021-08-19_16h23.25.171,natb3,2021.2.3,Win32,60.42661188,611e4473b1bc14664b7aa068,611e07ecdcc96256ae8d5b80,611e7759c581a7e27d53c2c3,0.4014,
,,,,space,,0,121,121,280,1,L, , , , ,space,1500,1.5,Visar,001,2021-08-19_16h23.25.171,natb3,2021.2.3,Win32,60.42661188,611e4473b1bc14664b7aa068,611e07ecdcc96256ae8d5b80,611e7759c581a7e27d53c2c3,0.4157,
,,,,space,,0,122,122,211,1,X, , , , ,,2500,2.5,Visar,001,2021-08-19_16h23.25.171,natb3,2021.2.3,Win32,60.42661188,611e4473b1bc14664b7aa068,611e07ecdcc96256ae8d5b80,611e7759c581a7e27d53c2c3,0.0965,
,,,,,,0,123,123,290,1,W, , , , ,space,1500,1.5,Visar,001,2021-08-19_16h23.25.171,natb3,2021.2.3,Win32,60.42661188,611e4473b1bc14664b7aa068,611e07ecdcc96256ae8d5b80,611e7759c581a7e27d53c2c3,,
,,,,space,,0,124,124,83,1,D, , , , ,space,2000,2,Visar,001,2021-08-19_16h23.25.171,natb3,2021.2.3,Win32,60.42661188,611e4473b1bc14664b7aa068,611e07ecdcc96256ae8d5b80,611e7759c581a7e27d53c2c3,0.4539,
,,,,space,,0,125,125,44,1,I, , , , ,space,2500,2.5,Visar,001,2021-08-19_16h23.25.171,natb3,2021.2.3,Win32,60.42661188,611e4473b1bc14664b7aa068,611e07ecdcc96256ae8d5b80,611e7759c581a7e27d53c2c3,0.4313,
,,,,space,,0,126,126,108,1,Y, , , , ,space,2500,2.5,Visar,001,2021-08-19_16h23.25.171,natb3,2021.2.3,Win32,60.42661188,611e4473b1bc14664b7aa068,611e07ecdcc96256ae8d5b80,611e7759c581a7e27d53c2c3,0.2841,
,,,,space,,0,127,127,82,1,X,4,6,1,7,,2000,2,Visar,001,2021-08-19_16h23.25.171,natb3,2021.2.3,Win32,60.42661188,611e4473b1bc14664b7aa068,611e07ecdcc96256ae8d5b80,611e7759c581a7e27d53c2c3,0.3501,
,,,,,,0,128,128,260,1,R, , , , ,space,2000,2,Visar,001,2021-08-19_16h23.25.171,natb3,2021.2.3,Win32,60.42661188,611e4473b1bc14664b7aa068,611e07ecdcc96256ae8d5b80,611e7759c581a7e27d53c2c3,,
,,,,,,0,129,129,112,1,Q, , , , ,space,2500,2.5,Visar,001,2021-08-19_16h23.25.171,natb3,2021.2.3,Win32,60.42661188,611e4473b1bc14664b7aa068,611e07ecdcc96256ae8d5b80,611e7759c581a7e27d53c2c3,,
,,,,space,,0,130,130,333,1,I, , , , ,space,1500,1.5,Visar,001,2021-08-19_16h23.25.171,natb3,2021.2.3,Win32,60.42661188,611e4473b1bc14664b7aa068,611e07ecdcc96256ae8d5b80,611e7759c581a7e27d53c2c3,0.4879,
,,,,space,,0,131,131,217,1,T, , , , ,space,2500,2.5,Visar,001,2021-08-19_16h23.25.171,natb3,2021.2.3,Win32,60.42661188,611e4473b1bc14664b7aa068,611e07ecdcc96256ae8d5b80,611e7759c581a7e27d53c2c3,0.5015,
,,,,space,,0,132,132,155,1,O, , , , ,space,1500,1.5,Visar,001,2021-08-19_16h23.25.171,natb3,2021.2.3,Win32,60.42661188,611e4473b1bc14664b7aa068,611e07ecdcc96256ae8d5b80,611e7759c581a7e27d53c2c3,0.5365,
,,,,space,,0,133,133,210,1,M, , , , ,space,1500,1.5,Visar,001,2021-08-19_16h23.25.171,natb3,2021.2.3,Win32,60.42661188,611e4473b1bc14664b7aa068,611e07ecdcc96256ae8d5b80,611e7759c581a7e27d53c2c3,0.7323,
,,,,,,0,134,134,138,1,X,8,5, ,3,,2000,2,Visar,001,2021-08-19_16h23.25.171,natb3,2021.2.3,Win32,60.42661188,611e4473b1bc14664b7aa068,611e07ecdcc96256ae8d5b80,611e7759c581a7e27d53c2c3,,
,,,,space,,0,135,135,197,1,G, , , , ,space,2500,2.5,Visar,001,2021-08-19_16h23.25.171,natb3,2021.2.3,Win32,60.42661188,611e4473b1bc14664b7aa068,611e07ecdcc96256ae8d5b80,611e7759c581a7e27d53c2c3,0.6343,
,,,,space,,0,136,136,154,1,I, , , , ,space,2500,2.5,Visar,001,2021-08-19_16h23.25.171,natb3,2021.2.3,Win32,60.42661188,611e4473b1bc14664b7aa068,611e07ecdcc96256ae8d5b80,611e7759c581a7e27d53c2c3,0.9688,
,,,,space,,0,137,137,221,1,I, , , , ,space,2500,2.5,Visar,001,2021-08-19_16h23.25.171,natb3,2021.2.3,Win32,60.42661188,611e4473b1bc14664b7aa068,611e07ecdcc96256ae8d5b80,611e7759c581a7e27d53c2c3,0.4176,
,,,,space,,0,138,138,80,1,A, , , , ,space,2000,2,Visar,001,2021-08-19_16h23.25.171,natb3,2021.2.3,Win32,60.42661188,611e4473b1bc14664b7aa068,611e07ecdcc96256ae8d5b80,611e7759c581a7e27d53c2c3,0.4524,
,,,,,,0,139,139,15,1,X, , , , ,,1500,1.5,Visar,001,2021-08-19_16h23.25.171,natb3,2021.2.3,Win32,60.42661188,611e4473b1bc14664b7aa068,611e07ecdcc96256ae8d5b80,611e7759c581a7e27d53c2c3,,
,,,,space,,0,140,140,64,1,N, , , , ,space,2000,2,Visar,001,2021-08-19_16h23.25.171,natb3,2021.2.3,Win32,60.42661188,611e4473b1bc14664b7aa068,611e07ecdcc96256ae8d5b80,611e7759c581a7e27d53c2c3,0.3399,
,,,,space,,0,141,141,170,1,Z, , , , ,space,2000,2,Visar,001,2021-08-19_16h23.25.171,natb3,2021.2.3,Win32,60.42661188,611e4473b1bc14664b7aa068,611e07ecdcc96256ae8d5b80,611e7759c581a7e27d53c2c3,0.3983,
,,,,space,,0,142,142,198,1,H, , , , ,space,2500,2.5,Visar,001,2021-08-19_16h23.25.171,natb3,2021.2.3,Win32,60.42661188,611e4473b1bc14664b7aa068,611e07ecdcc96256ae8d5b80,611e7759c581a7e27d53c2c3,0.3969,
,,,,space,,0,143,143,249,1,C, , , , ,space,2000,2,Visar,001,2021-08-19_16h23.25.171,natb3,2021.2.3,Win32,60.42661188,611e4473b1bc14664b7aa068,611e07ecdcc96256ae8d5b80,611e7759c581a7e27d53c2c3,0.4024,
,,,,,,0,144,144,248,1,X, ,1,5, ,,1500,1.5,Visar,001,2021-08-19_16h23.25.171,natb3,2021.2.3,Win32,60.42661188,611e4473b1bc14664b7aa068,611e07ecdcc96256ae8d5b80,611e7759c581a7e27d53c2c3,,
,,,,,,0,145,145,31,1,X, , , , ,,1500,1.5,Visar,001,2021-08-19_16h23.25.171,natb3,2021.2.3,Win32,60.42661188,611e4473b1bc14664b7aa068,611e07ecdcc96256ae8d5b80,611e7759c581a7e27d53c2c3,,
,,,,space,,0,146,146,247,1,Z, , , , ,space,1500,1.5,Visar,001,2021-08-19_16h23.25.171,natb3,2021.2.3,Win32,60.42661188,611e4473b1bc14664b7aa068,611e07ecdcc96256ae8d5b80,611e7759c581a7e27d53c2c3,0.3915,
,,,,,,0,147,147,27,1,X,5, ,1,3,,1500,1.5,Visar,001,2021-08-19_16h23.25.171,natb3,2021.2.3,Win32,60.42661188,611e4473b1bc14664b7aa068,611e07ecdcc96256ae8d5b80,611e7759c581a7e27d53c2c3,,
,,,,,,0,148,148,118,1,X, , , , ,,2000,2,Visar,001,2021-08-19_16h23.25.171,natb3,2021.2.3,Win32,60.42661188,611e4473b1bc14664b7aa068,611e07ecdcc96256ae8d5b80,611e7759c581a7e27d53c2c3,,
,,,,space,,0,149,149,161,1,F, , , , ,space,1500,1.5,Visar,001,2021-08-19_16h23.25.171,natb3,2021.2.3,Win32,60.42661188,611e4473b1bc14664b7aa068,611e07ecdcc96256ae8d5b80,611e7759c581a7e27d53c2c3,0.3752,
,,,,space,,0,150,150,0,1,Q, , , , ,space,1500,1.5,Visar,001,2021-08-19_16h23.25.171,natb3,2021.2.3,Win32,60.42661188,611e4473b1bc14664b7aa068,611e07ecdcc96256ae8d5b80,611e7759c581a7e27d53c2c3,0.5162,
,,,,space,,0,151,151,265,1,I, , , , ,space,2000,2,Visar,001,2021-08-19_16h23.25.171,natb3,2021.2.3,Win32,60.42661188,611e4473b1bc14664b7aa068,611e07ecdcc96256ae8d5b80,611e7759c581a7e27d53c2c3,0.4575,
,,,,space,,0,152,152,289,1,Q, , , , ,space,2000,2,Visar,001,2021-08-19_16h23.25.171,natb3,2021.2.3,Win32,60.42661188,611e4473b1bc14664b7aa068,611e07ecdcc96256ae8d5b80,611e7759c581a7e27d53c2c3,0.3329,
,,,,space,,0,153,153,269,1,A, , , , ,space,2500,2.5,Visar,001,2021-08-19_16h23.25.171,natb3,2021.2.3,Win32,60.42661188,611e4473b1bc14664b7aa068,611e07ecdcc96256ae8d5b80,611e7759c581a7e27d53c2c3,0.3224,
,,,,space,,0,154,154,120,1,U, , , , ,space,1500,1.5,Visar,001,2021-08-19_16h23.25.171,natb3,2021.2.3,Win32,60.42661188,611e4473b1bc14664b7aa068,611e07ecdcc96256ae8d5b80,611e7759c581a7e27d53c2c3,0.4461,
,,,,,,0,155,155,33,1,X, , , , ,,1500,1.5,Visar,001,2021-08-19_16h23.25.171,natb3,2021.2.3,Win32,60.42661188,611e4473b1bc14664b7aa068,611e07ecdcc96256ae8d5b80,611e7759c581a7e27d53c2c3,,
,,,,space,,0,156,156,160,1,D, , , , ,space,1500,1.5,Visar,001,2021-08-19_16h23.25.171,natb3,2021.2.3,Win32,60.42661188,611e4473b1bc14664b7aa068,611e07ecdcc96256ae8d5b80,611e7759c581a7e27d53c2c3,0.4659,
,,,,space,,0,157,157,301,1,P, , , , ,space,1500,1.5,Visar,001,2021-08-19_16h23.25.171,natb3,2021.2.3,Win32,60.42661188,611e4473b1bc14664b7aa068,611e07ecdcc96256ae8d5b80,611e7759c581a7e27d53c2c3,0.3381,
,,,,space,,0,158,158,117,1,T, , , , ,space,2500,2.5,Visar,001,2021-08-19_16h23.25.171,natb3,2021.2.3,Win32,60.42661188,611e4473b1bc14664b7aa068,611e07ecdcc96256ae8d5b80,611e7759c581a7e27d53c2c3,0.4353,
,,,,space,,0,159,159,334,1,O, , , , ,space,1500,1.5,Visar,001,2021-08-19_16h23.25.171,natb3,2021.2.3,Win32,60.42661188,611e4473b1bc14664b7aa068,611e07ecdcc96256ae8d5b80,611e7759c581a7e27d53c2c3,0.426,
,,,,space,,0,160,160,276,1,H, , , , ,space,2000,2,Visar,001,2021-08-19_16h23.25.171,natb3,2021.2.3,Win32,60.42661188,611e4473b1bc14664b7aa068,611e07ecdcc96256ae8d5b80,611e7759c581a7e27d53c2c3,0.416,
,,,,space,,0,161,161,57,1,K, , , , ,space,2500,2.5,Visar,001,2021-08-19_16h23.25.171,natb3,2021.2.3,Win32,60.42661188,611e4473b1bc14664b7aa068,611e07ecdcc96256ae8d5b80,611e7759c581a7e27d53c2c3,0.5005,
,,,,,,0,162,162,66,1,X, ,4,7, ,,2000,2,Visar,001,2021-08-19_16h23.25.171,natb3,2021.2.3,Win32,60.42661188,611e4473b1bc14664b7aa068,611e07ecdcc96256ae8d5b80,611e7759c581a7e27d53c2c3,,
,,,,,,0,163,163,148,1,X, , , , ,,2000,2,Visar,001,2021-08-19_16h23.25.171,natb3,2021.2.3,Win32,60.42661188,611e4473b1bc14664b7aa068,611e07ecdcc96256ae8d5b80,611e7759c581a7e27d53c2c3,,
,,,,space,,0,164,164,20,1,H, , , , ,space,1500,1.5,Visar,001,2021-08-19_16h23.25.171,natb3,2021.2.3,Win32,60.42661188,611e4473b1bc14664b7aa068,611e07ecdcc96256ae8d5b80,611e7759c581a7e27d53c2c3,0.4103,
,,,,space,,0,165,165,228,1,Y, , , , ,space,2000,2,Visar,001,2021-08-19_16h23.25.171,natb3,2021.2.3,Win32,60.42661188,611e4473b1bc14664b7aa068,611e07ecdcc96256ae8d5b80,611e7759c581a7e27d53c2c3,0.5679,
,,,,,,0,166,166,168,1,X, , , , ,,2500,2.5,Visar,001,2021-08-19_16h23.25.171,natb3,2021.2.3,Win32,60.42661188,611e4473b1bc14664b7aa068,611e07ecdcc96256ae8d5b80,611e7759c581a7e27d53c2c3,,
,,,,space,space,0,167,167,41,1,Y, , , , ,space,2500,2.5,Visar,001,2021-08-19_16h23.25.171,natb3,2021.2.3,Win32,60.42661188,611e4473b1bc14664b7aa068,611e07ecdcc96256ae8d5b80,611e7759c581a7e27d53c2c3,0.3613,73.1284
,,,,,,0,168,168,4,1,X, , , , ,,2000,2,Visar,001,2021-08-19_16h23.25.171,natb3,2021.2.3,Win32,60.42661188,611e4473b1bc14664b7aa068,611e07ecdcc96256ae8d5b80,611e7759c581a7e27d53c2c3,,
,,,,space,,0,169,169,253,1,N, , , , ,space,2500,2.5,Visar,001,2021-08-19_16h23.25.171,natb3,2021.2.3,Win32,60.42661188,611e4473b1bc14664b7aa068,611e07ecdcc96256ae8d5b80,611e7759c581a7e27d53c2c3,0.4755,
,,,,space,,0,170,170,95,1,V, , , , ,space,1500,1.5,Visar,001,2021-08-19_16h23.25.171,natb3,2021.2.3,Win32,60.42661188,611e4473b1bc14664b7aa068,611e07ecdcc96256ae8d5b80,611e7759c581a7e27d53c2c3,0.3487,
,,,,space,,0,171,171,328,1,R, , , , ,space,1500,1.5,Visar,001,2021-08-19_16h23.25.171,natb3,2021.2.3,Win32,60.42661188,611e4473b1bc14664b7aa068,611e07ecdcc96256ae8d5b80,611e7759c581a7e27d53c2c3,0.3299,
,,,,,,0,172,172,46,1,X, , , , ,,2000,2,Visar,001,2021-08-19_16h23.25.171,natb3,2021.2.3,Win32,60.42661188,611e4473b1bc14664b7aa068,611e07ecdcc96256ae8d5b80,611e7759c581a7e27d53c2c3,,
,,,,space,,0,173,173,232,1,O, , , , ,space,2500,2.5,Visar,001,2021-08-19_16h23.25.171,natb3,2021.2.3,Win32,60.42661188,611e4473b1bc14664b7aa068,611e07ecdcc96256ae8d5b80,611e7759c581a7e27d53c2c3,0.5005,
,,,,space,,0,174,174,144,1,Q, , , , ,space,2500,2.5,Visar,001,2021-08-19_16h23.25.171,natb3,2021.2.3,Win32,60.42661188,611e4473b1bc14664b7aa068,611e07ecdcc96256ae8d5b80,611e7759c581a7e27d53c2c3,0.3824,
,,,,space,,0,175,175,256,1,Q, , , , ,space,2000,2,Visar,001,2021-08-19_16h23.25.171,natb3,2021.2.3,Win32,60.42661188,611e4473b1bc14664b7aa068,611e07ecdcc96256ae8d5b80,611e7759c581a7e27d53c2c3,0.3502,
,,,,,,0,176,176,277,1,X,8,5, ,2,,2000,2,Visar,001,2021-08-19_16h23.25.171,natb3,2021.2.3,Win32,60.42661188,611e4473b1bc14664b7aa068,611e07ecdcc96256ae8d5b80,611e7759c581a7e27d53c2c3,,
,,,,space,,0,177,177,264,1,U, , , , ,space,2000,2,Visar,001,2021-08-19_16h23.25.171,natb3,2021.2.3,Win32,60.42661188,611e4473b1bc14664b7aa068,611e07ecdcc96256ae8d5b80,611e7759c581a7e27d53c2c3,0.4791,
,,,,space,,0,178,178,304,1,S, , , , ,space,2000,2,Visar,001,2021-08-19_16h23.25.171,natb3,2021.2.3,Win32,60.42661188,611e4473b1bc14664b7aa068,611e07ecdcc96256ae8d5b80,611e7759c581a7e27d53c2c3,0.4172,
,,,,space,,0,179,179,140,1,B, , , , ,space,2500,2.5,Visar,001,2021-08-19_16h23.25.171,natb3,2021.2.3,Win32,60.42661188,611e4473b1bc14664b7aa068,611e07ecdcc96256ae8d5b80,611e7759c581a7e27d53c2c3,0.3824,
,,,,,,0,180,180,335,1,P,,,,,space,1500,1.5,Visar,001,2021-08-19_16h23.25.171,natb3,2021.2.3,Win32,60.42661188,611e4473b1bc14664b7aa068,611e07ecdcc96256ae8d5b80,611e7759c581a7e27d53c2c3,,
,,,,space,,0,181,181,251,1,B, , , , ,space,1500,1.5,Visar,001,2021-08-19_16h23.25.171,natb3,2021.2.3,Win32,60.42661188,611e4473b1bc14664b7aa068,611e07ecdcc96256ae8d5b80,611e7759c581a7e27d53c2c3,0.5243,
,,,,,,0,182,182,243,1,X, , , , ,,2500,2.5,Visar,001,2021-08-19_16h23.25.171,natb3,2021.2.3,Win32,60.42661188,611e4473b1bc14664b7aa068,611e07ecdcc96256ae8d5b80,611e7759c581a7e27d53c2c3,,
,,,,space,,0,183,183,332,1,U, , , , ,space,2000,2,Visar,001,2021-08-19_16h23.25.171,natb3,2021.2.3,Win32,60.42661188,611e4473b1bc14664b7aa068,611e07ecdcc96256ae8d5b80,611e7759c581a7e27d53c2c3,0.3607,
,,,,space,,0,184,184,196,1,F, , , , ,space,1500,1.5,Visar,001,2021-08-19_16h23.25.171,natb3,2021.2.3,Win32,60.42661188,611e4473b1bc14664b7aa068,611e07ecdcc96256ae8d5b80,611e7759c581a7e27d53c2c3,0.4017,
,,,,space,,0,185,185,195,1,X, , , , ,,1500,1.5,Visar,001,2021-08-19_16h23.25.171,natb3,2021.2.3,Win32,60.42661188,611e4473b1bc14664b7aa068,611e07ecdcc96256ae8d5b80,611e7759c581a7e27d53c2c3,0.3259,
,,,,space,,0,186,186,106,1,T, , , , ,space,1500,1.5,Visar,001,2021-08-19_16h23.25.171,natb3,2021.2.3,Win32,60.42661188,611e4473b1bc14664b7aa068,611e07ecdcc96256ae8d5b80,611e7759c581a7e27d53c2c3,0.4246,
,,,,,,0,187,187,96,1,X, , , , ,,1500,1.5,Visar,001,2021-08-19_16h23.25.171,natb3,2021.2.3,Win32,60.42661188,611e4473b1bc14664b7aa068,611e07ecdcc96256ae8d5b80,611e7759c581a7e27d53c2c3,,
,,,,space,,0,188,188,208,1,B, , , , ,space,1500,1.5,Visar,001,2021-08-19_16h23.25.171,natb3,2021.2.3,Win32,60.42661188,611e4473b1bc14664b7aa068,611e07ecdcc96256ae8d5b80,611e7759c581a7e27d53c2c3,0.4194,
,,,,space,,0,189,189,42,1,U, , , , ,space,1500,1.5,Visar,001,2021-08-19_16h23.25.171,natb3,2021.2.3,Win32,60.42661188,611e4473b1bc14664b7aa068,611e07ecdcc96256ae8d5b80,611e7759c581a7e27d53c2c3,0.5784,
,,,,space,,0,190,190,190,1,P, , , , ,space,2000,2,Visar,001,2021-08-19_16h23.25.171,natb3,2021.2.3,Win32,60.42661188,611e4473b1bc14664b7aa068,611e07ecdcc96256ae8d5b80,611e7759c581a7e27d53c2c3,0.6086,
,,,,space,,0,191,191,28,1,V, , , , ,space,1500,1.5,Visar,001,2021-08-19_16h23.25.171,natb3,2021.2.3,Win32,60.42661188,611e4473b1bc14664b7aa068,611e07ecdcc96256ae8d5b80,611e7759c581a7e27d53c2c3,0.444,
,,,,space,,0,192,192,2,1,E, , , , ,space,2500,2.5,Visar,001,2021-08-19_16h23.25.171,natb3,2021.2.3,Win32,60.42661188,611e4473b1bc14664b7aa068,611e07ecdcc96256ae8d5b80,611e7759c581a7e27d53c2c3,0.4026,
,,,,,,0,193,193,287,1,X, ,2, ,9,,2000,2,Visar,001,2021-08-19_16h23.25.171,natb3,2021.2.3,Win32,60.42661188,611e4473b1bc14664b7aa068,611e07ecdcc96256ae8d5b80,611e7759c581a7e27d53c2c3,,
,,,,space,,0,194,194,61,1,C, , , , ,space,2000,2,Visar,001,2021-08-19_16h23.25.171,natb3,2021.2.3,Win32,60.42661188,611e4473b1bc14664b7aa068,611e07ecdcc96256ae8d5b80,611e7759c581a7e27d53c2c3,0.4726,
,,,,space,,0,195,195,324,1,Q, , , , ,space,2000,2,Visar,001,2021-08-19_16h23.25.171,natb3,2021.2.3,Win32,60.42661188,611e4473b1bc14664b7aa068,611e07ecdcc96256ae8d5b80,611e7759c581a7e27d53c2c3,0.445,
,,,,space,,0,196,196,13,1,A, , , , ,space,2000,2,Visar,001,2021-08-19_16h23.25.171,natb3,2021.2.3,Win32,60.42661188,611e4473b1bc14664b7aa068,611e07ecdcc96256ae8d5b80,611e7759c581a7e27d53c2c3,0.5044,
,,,,space,,0,197,197,71,1,R, , , , ,space,2500,2.5,Visar,001,2021-08-19_16h23.25.171,natb3,2021.2.3,Win32,60.42661188,611e4473b1bc14664b7aa068,611e07ecdcc96256ae8d5b80,611e7759c581a7e27d53c2c3,0.4153,
,,,,space,,0,198,198,134,1,J, , , , ,space,2000,2,Visar,001,2021-08-19_16h23.25.171,natb3,2021.2.3,Win32,60.42661188,611e4473b1bc14664b7aa068,611e07ecdcc96256ae8d5b80,611e7759c581a7e27d53c2c3,0.457,
,,,,,,0,199,199,252,1,X,3, ,6,9,,2000,2,Visar,001,2021-08-19_16h23.25.171,natb3,2021.2.3,Win32,60.42661188,611e4473b1bc14664b7aa068,611e07ecdcc96256ae8d5b80,611e7759c581a7e27d53c2c3,,
,,,,,,0,200,200,188,1,I, , , , ,space,2500,2.5,Visar,001,2021-08-19_16h23.25.171,natb3,2021.2.3,Win32,60.42661188,611e4473b1bc14664b7aa068,611e07ecdcc96256ae8d5b80,611e7759c581a7e27d53c2c3,,
,,,,space,,0,201,201,19,1,G, , , , ,space,1500,1.5,Visar,001,2021-08-19_16h23.25.171,natb3,2021.2.3,Win32,60.42661188,611e4473b1bc14664b7aa068,611e07ecdcc96256ae8d5b80,611e7759c581a7e27d53c2c3,0.4848,
,,,,,,0,202,202,259,1,X,8, , ,3,,2500,2.5,Visar,001,2021-08-19_16h23.25.171,natb3,2021.2.3,Win32,60.42661188,611e4473b1bc14664b7aa068,611e07ecdcc96256ae8d5b80,611e7759c581a7e27d53c2c3,,
,,,,space,,0,203,203,8,1,U, , , , ,space,1500,1.5,Visar,001,2021-08-19_16h23.25.171,natb3,2021.2.3,Win32,60.42661188,611e4473b1bc14664b7aa068,611e07ecdcc96256ae8d5b80,611e7759c581a7e27d53c2c3,0.698,
,,,,,,0,204,204,230,1,U, , , , ,space,1500,1.5,Visar,001,2021-08-19_16h23.25.171,natb3,2021.2.3,Win32,60.42661188,611e4473b1bc14664b7aa068,611e07ecdcc96256ae8d5b80,611e7759c581a7e27d53c2c3,,
,,,,space,,0,205,205,192,1,A, , , , ,space,2000,2,Visar,001,2021-08-19_16h23.25.171,natb3,2021.2.3,Win32,60.42661188,611e4473b1bc14664b7aa068,611e07ecdcc96256ae8d5b80,611e7759c581a7e27d53c2c3,0.5556,
,,,,space,,0,206,206,101,1,Q, , , , ,space,2500,2.5,Visar,001,2021-08-19_16h23.25.171,natb3,2021.2.3,Win32,60.42661188,611e4473b1bc14664b7aa068,611e07ecdcc96256ae8d5b80,611e7759c581a7e27d53c2c3,0.4664,
,,,,space,,0,207,207,183,1,R, , , , ,space,1500,1.5,Visar,001,2021-08-19_16h23.25.171,natb3,2021.2.3,Win32,60.42661188,611e4473b1bc14664b7aa068,611e07ecdcc96256ae8d5b80,611e7759c581a7e27d53c2c3,0.7189,
,,,,,,0,208,208,323,1,M, , , , ,space,2500,2.5,Visar,001,2021-08-19_16h23.25.171,natb3,2021.2.3,Win32,60.42661188,611e4473b1bc14664b7aa068,611e07ecdcc96256ae8d5b80,611e7759c581a7e27d53c2c3,,
,,,,space,,0,209,209,224,1,W, , , , ,space,1500,1.5,Visar,001,2021-08-19_16h23.25.171,natb3,2021.2.3,Win32,60.42661188,611e4473b1bc14664b7aa068,611e07ecdcc96256ae8d5b80,611e7759c581a7e27d53c2c3,0.5854,
,,,,space,,0,210,210,231,1,I, , , , ,space,2500,2.5,Visar,001,2021-08-19_16h23.25.171,natb3,2021.2.3,Win32,60.42661188,611e4473b1bc14664b7aa068,611e07ecdcc96256ae8d5b80,611e7759c581a7e27d53c2c3,0.5853,
,,,,,,0,211,211,282,1,X, , , , ,,2500,2.5,Visar,001,2021-08-19_16h23.25.171,natb3,2021.2.3,Win32,60.42661188,611e4473b1bc14664b7aa068,611e07ecdcc96256ae8d5b80,611e7759c581a7e27d53c2c3,,
,,,,space,,0,212,212,29,1,B, , , , ,space,1500,1.5,Visar,001,2021-08-19_16h23.25.171,natb3,2021.2.3,Win32,60.42661188,611e4473b1bc14664b7aa068,611e07ecdcc96256ae8d5b80,611e7759c581a7e27d53c2c3,0.4312,
,,,,space,,0,213,213,186,1,U, , , , ,space,2500,2.5,Visar,001,2021-08-19_16h23.25.171,natb3,2021.2.3,Win32,60.42661188,611e4473b1bc14664b7aa068,611e07ecdcc96256ae8d5b80,611e7759c581a7e27d53c2c3,0.3898,
,,,,,,0,214,214,263,1,X,4, ,6, ,,1500,1.5,Visar,001,2021-08-19_16h23.25.171,natb3,2021.2.3,Win32,60.42661188,611e4473b1bc14664b7aa068,611e07ecdcc96256ae8d5b80,611e7759c581a7e27d53c2c3,,
,,,,space,,0,215,215,281,1,Z, , , , ,space,1500,1.5,Visar,001,2021-08-19_16h23.25.171,natb3,2021.2.3,Win32,60.42661188,611e4473b1bc14664b7aa068,611e07ecdcc96256ae8d5b80,611e7759c581a7e27d53c2c3,0.47,
,,,,,,0,216,216,93,1,X,5, ,7, ,,2500,2.5,Visar,001,2021-08-19_16h23.25.171,natb3,2021.2.3,Win32,60.42661188,611e4473b1bc14664b7aa068,611e07ecdcc96256ae8d5b80,611e7759c581a7e27d53c2c3,,
,,,,space,,0,217,217,321,1,N, , , , ,space,2000,2,Visar,001,2021-08-19_16h23.25.171,natb3,2021.2.3,Win32,60.42661188,611e4473b1bc14664b7aa068,611e07ecdcc96256ae8d5b80,611e7759c581a7e27d53c2c3,0.7159,
,,,,,,0,218,218,7,1,X, , , , ,,1500,1.5,Visar,001,2021-08-19_16h23.25.171,natb3,2021.2.3,Win32,60.42661188,611e4473b1bc14664b7aa068,611e07ecdcc96256ae8d5b80,611e7759c581a7e27d53c2c3,,
,,,,,,0,219,219,126,1,A, , , , ,space,2500,2.5,Visar,001,2021-08-19_16h23.25.171,natb3,2021.2.3,Win32,60.42661188,611e4473b1bc14664b7aa068,611e07ecdcc96256ae8d5b80,611e7759c581a7e27d53c2c3,,
,,,,space,,0,220,220,111,1,O, , , , ,space,2000,2,Visar,001,2021-08-19_16h23.25.171,natb3,2021.2.3,Win32,60.42661188,611e4473b1bc14664b7aa068,611e07ecdcc96256ae8d5b80,611e7759c581a7e27d53c2c3,0.5014,
,,,,space,,0,221,221,266,1,O, , , , ,space,1500,1.5,Visar,001,2021-08-19_16h23.25.171,natb3,2021.2.3,Win32,60.42661188,611e4473b1bc14664b7aa068,611e07ecdcc96256ae8d5b80,611e7759c581a7e27d53c2c3,0.593,
,,,,space,,0,222,222,10,1,O, , , , ,space,2000,2,Visar,001,2021-08-19_16h23.25.171,natb3,2021.2.3,Win32,60.42661188,611e4473b1bc14664b7aa068,611e07ecdcc96256ae8d5b80,611e7759c581a7e27d53c2c3,0.4856,
,,,,,,0,223,223,84,1,X, , , , ,,2000,2,Visar,001,2021-08-19_16h23.25.171,natb3,2021.2.3,Win32,60.42661188,611e4473b1bc14664b7aa068,611e07ecdcc96256ae8d5b80,611e7759c581a7e27d53c2c3,,
,,,,,,0,224,224,32,1,M, , , , ,space,1500,1.5,Visar,001,2021-08-19_16h23.25.171,natb3,2021.2.3,Win32,60.42661188,611e4473b1bc14664b7aa068,611e07ecdcc96256ae8d5b80,611e7759c581a7e27d53c2c3,,
,,,,space,,0,225,225,307,1,F, , , , ,space,2500,2.5,Visar,001,2021-08-19_16h23.25.171,natb3,2021.2.3,Win32,60.42661188,611e4473b1bc14664b7aa068,611e07ecdcc96256ae8d5b80,611e7759c581a7e27d53c2c3,0.4489,
,,,,space,,0,226,226,204,1,Z, , , , ,space,2000,2,Visar,001,2021-08-19_16h23.25.171,natb3,2021.2.3,Win32,60.42661188,611e4473b1bc14664b7aa068,611e07ecdcc96256ae8d5b80,611e7759c581a7e27d53c2c3,0.4068,
,,,,space,,0,227,227,172,1,C, , , , ,space,1500,1.5,Visar,001,2021-08-19_16h23.25.171,natb3,2021.2.3,Win32,60.42661188,611e4473b1bc14664b7aa068,611e07ecdcc96256ae8d5b80,611e7759c581a7e27d53c2c3,0.3653,
,,,,space,,0,228,228,11,1,P, , , , ,space,2500,2.5,Visar,001,2021-08-19_16h23.25.171,natb3,2021.2.3,Win32,60.42661188,611e4473b1bc14664b7aa068,611e07ecdcc96256ae8d5b80,611e7759c581a7e27d53c2c3,0.3667,
,,,,space,,0,229,229,237,1,S, , , , ,space,1500,1.5,Visar,001,2021-08-19_16h23.25.171,natb3,2021.2.3,Win32,60.42661188,611e4473b1bc14664b7aa068,611e07ecdcc96256ae8d5b80,611e7759c581a7e27d53c2c3,0.4157,
,,,,space,,0,230,230,216,1,R, , , , ,space,1500,1.5,Visar,001,2021-08-19_16h23.25.171,natb3,2021.2.3,Win32,60.42661188,611e4473b1bc14664b7aa068,611e07ecdcc96256ae8d5b80,611e7759c581a7e27d53c2c3,0.3459,
,,,,,,0,231,231,229,1,X,8, ,2,6,,2500,2.5,Visar,001,2021-08-19_16h23.25.171,natb3,2021.2.3,Win32,60.42661188,611e4473b1bc14664b7aa068,611e07ecdcc96256ae8d5b80,611e7759c581a7e27d53c2c3,,
,,,,space,,0,232,232,152,1,U, , , , ,space,2000,2,Visar,001,2021-08-19_16h23.25.171,natb3,2021.2.3,Win32,60.42661188,611e4473b1bc14664b7aa068,611e07ecdcc96256ae8d5b80,611e7759c581a7e27d53c2c3,0.4011,
,,,,space,,0,233,233,22,1,K, , , , ,space,2000,2,Visar,001,2021-08-19_16h23.25.171,natb3,2021.2.3,Win32,60.42661188,611e4473b1bc14664b7aa068,611e07ecdcc96256ae8d5b80,611e7759c581a7e27d53c2c3,0.3828,
,,,,space,,0,234,234,219,1,Y, , , , ,space,2000,2,Visar,001,2021-08-19_16h23.25.171,natb3,2021.2.3,Win32,60.42661188,611e4473b1bc14664b7aa068,611e07ecdcc96256ae8d5b80,611e7759c581a7e27d53c2c3,0.4204,
,,,,space,,0,235,235,58,1,L, , , , ,space,2000,2,Visar,001,2021-08-19_16h23.25.171,natb3,2021.2.3,Win32,60.42661188,611e4473b1bc14664b7aa068,611e07ecdcc96256ae8d5b80,611e7759c581a7e27d53c2c3,0.3675,
,,,,space,,0,236,236,245,1,K, , , , ,space,2000,2,Visar,001,2021-08-19_16h23.25.171,natb3,2021.2.3,Win32,60.42661188,611e4473b1bc14664b7aa068,611e07ecdcc96256ae8d5b80,611e7759c581a7e27d53c2c3,0.3519,
,,,,space,,0,237,237,5,1,T, , , , ,space,2000,2,Visar,001,2021-08-19_16h23.25.171,natb3,2021.2.3,Win32,60.42661188,611e4473b1bc14664b7aa068,611e07ecdcc96256ae8d5b80,611e7759c581a7e27d53c2c3,0.3549,
,,,,space,,0,238,238,235,1,A, , , , ,space,1500,1.5,Visar,001,2021-08-19_16h23.25.171,natb3,2021.2.3,Win32,60.42661188,611e4473b1bc14664b7aa068,611e07ecdcc96256ae8d5b80,611e7759c581a7e27d53c2c3,0.3836,
,,,,space,,0,239,239,298,1,I, , , , ,space,2000,2,Visar,001,2021-08-19_16h23.25.171,natb3,2021.2.3,Win32,60.42661188,611e4473b1bc14664b7aa068,611e07ecdcc96256ae8d5b80,611e7759c581a7e27d53c2c3,0.3953,
,,,,space,,0,240,240,34,1,Q, , , , ,space,2500,2.5,Visar,001,2021-08-19_16h23.25.171,natb3,2021.2.3,Win32,60.42661188,611e4473b1bc14664b7aa068,611e07ecdcc96256ae8d5b80,611e7759c581a7e27d53c2c3,0.3531,
,,,,space,,0,241,241,313,1,X, , , , ,,2500,2.5,Visar,001,2021-08-19_16h23.25.171,natb3,2021.2.3,Win32,60.42661188,611e4473b1bc14664b7aa068,611e07ecdcc96256ae8d5b80,611e7759c581a7e27d53c2c3,0.3547,
,,,,space,,0,242,242,81,1,S, , , , ,space,2000,2,Visar,001,2021-08-19_16h23.25.171,natb3,2021.2.3,Win32,60.42661188,611e4473b1bc14664b7aa068,611e07ecdcc96256ae8d5b80,611e7759c581a7e27d53c2c3,0.4224,
,,,,space,,0,243,243,327,1,E, , , , ,space,1500,1.5,Visar,001,2021-08-19_16h23.25.171,natb3,2021.2.3,Win32,60.42661188,611e4473b1bc14664b7aa068,611e07ecdcc96256ae8d5b80,611e7759c581a7e27d53c2c3,0.6004,
,,,,,,0,244,244,291,1,X, , , , ,,2000,2,Visar,001,2021-08-19_16h23.25.171,natb3,2021.2.3,Win32,60.42661188,611e4473b1bc14664b7aa068,611e07ecdcc96256ae8d5b80,611e7759c581a7e27d53c2c3,,
,,,,space,,0,245,245,166,1,X, , , , ,,2000,2,Visar,001,2021-08-19_16h23.25.171,natb3,2021.2.3,Win32,60.42661188,611e4473b1bc14664b7aa068,611e07ecdcc96256ae8d5b80,611e7759c581a7e27d53c2c3,0.3417,
,,,,space,,0,246,246,124,1,P, , , , ,space,2000,2,Visar,001,2021-08-19_16h23.25.171,natb3,2021.2.3,Win32,60.42661188,611e4473b1bc14664b7aa068,611e07ecdcc96256ae8d5b80,611e7759c581a7e27d53c2c3,0.3666,
,,,,space,,0,247,247,103,1,W, , , , ,space,2000,2,Visar,001,2021-08-19_16h23.25.171,natb3,2021.2.3,Win32,60.42661188,611e4473b1bc14664b7aa068,611e07ecdcc96256ae8d5b80,611e7759c581a7e27d53c2c3,0.5381,
,,,,space,,0,248,248,94,1,C, , , , ,space,2000,2,Visar,001,2021-08-19_16h23.25.171,natb3,2021.2.3,Win32,60.42661188,611e4473b1bc14664b7aa068,611e07ecdcc96256ae8d5b80,611e7759c581a7e27d53c2c3,0.4087,
,,,,space,,0,249,249,1,1,W, , , , ,space,2000,2,Visar,001,2021-08-19_16h23.25.171,natb3,2021.2.3,Win32,60.42661188,611e4473b1bc14664b7aa068,611e07ecdcc96256ae8d5b80,611e7759c581a7e27d53c2c3,0.5182,
,,,,space,,0,250,250,292,1,E, , , , ,space,2000,2,Visar,001,2021-08-19_16h23.25.171,natb3,2021.2.3,Win32,60.42661188,611e4473b1bc14664b7aa068,611e07ecdcc96256ae8d5b80,611e7759c581a7e27d53c2c3,0.4068,
,,,,space,,0,251,251,222,1,O, , , , ,space,2000,2,Visar,001,2021-08-19_16h23.25.171,natb3,2021.2.3,Win32,60.42661188,611e4473b1bc14664b7aa068,611e07ecdcc96256ae8d5b80,611e7759c581a7e27d53c2c3,0.3665,
,,,,,,0,252,252,43,1,X, ,6, ,2,,2500,2.5,Visar,001,2021-08-19_16h23.25.171,natb3,2021.2.3,Win32,60.42661188,611e4473b1bc14664b7aa068,611e07ecdcc96256ae8d5b80,611e7759c581a7e27d53c2c3,,
,,,,space,,0,253,253,180,1,W, , , , ,space,2000,2,Visar,001,2021-08-19_16h23.25.171,natb3,2021.2.3,Win32,60.42661188,611e4473b1bc14664b7aa068,611e07ecdcc96256ae8d5b80,611e7759c581a7e27d53c2c3,0.5514,
,,,,space,,0,254,254,305,1,X, , , , ,,1500,1.5,Visar,001,2021-08-19_16h23.25.171,natb3,2021.2.3,Win32,60.42661188,611e4473b1bc14664b7aa068,611e07ecdcc96256ae8d5b80,611e7759c581a7e27d53c2c3,0.6347,
,,,,space,,0,255,255,142,1,N, , , , ,space,2500,2.5,Visar,001,2021-08-19_16h23.25.171,natb3,2021.2.3,Win32,60.42661188,611e4473b1bc14664b7aa068,611e07ecdcc96256ae8d5b80,611e7759c581a7e27d53c2c3,0.4344,
,,,,space,,0,256,256,63,1,B, , , , ,space,2000,2,Visar,001,2021-08-19_16h23.25.171,natb3,2021.2.3,Win32,60.42661188,611e4473b1bc14664b7aa068,611e07ecdcc96256ae8d5b80,611e7759c581a7e27d53c2c3,0.4176,
,,,,space,,0,257,257,330,1,T, , , , ,space,2500,2.5,Visar,001,2021-08-19_16h23.25.171,natb3,2021.2.3,Win32,60.42661188,611e4473b1bc14664b7aa068,611e07ecdcc96256ae8d5b80,611e7759c581a7e27d53c2c3,0.4006,
,,,,,,0,258,258,236,1,X,3, ,4,7,,2500,2.5,Visar,001,2021-08-19_16h23.25.171,natb3,2021.2.3,Win32,60.42661188,611e4473b1bc14664b7aa068,611e07ecdcc96256ae8d5b80,611e7759c581a7e27d53c2c3,,
,,,,,,0,259,259,116,1,X, , , , ,,2000,2,Visar,001,2021-08-19_16h23.25.171,natb3,2021.2.3,Win32,60.42661188,611e4473b1bc14664b7aa068,611e07ecdcc96256ae8d5b80,611e7759c581a7e27d53c2c3,,
,,,,space,,0,260,260,293,1,R, , , , ,space,2500,2.5,Visar,001,2021-08-19_16h23.25.171,natb3,2021.2.3,Win32,60.42661188,611e4473b1bc14664b7aa068,611e07ecdcc96256ae8d5b80,611e7759c581a7e27d53c2c3,0.419,
,,,,space,,0,261,261,283,1,C, , , , ,space,1500,1.5,Visar,001,2021-08-19_16h23.25.171,natb3,2021.2.3,Win32,60.42661188,611e4473b1bc14664b7aa068,611e07ecdcc96256ae8d5b80,611e7759c581a7e27d53c2c3,0.3839,
,,,,space,,0,262,262,105,1,R, , , , ,space,2500,2.5,Visar,001,2021-08-19_16h23.25.171,natb3,2021.2.3,Win32,60.42661188,611e4473b1bc14664b7aa068,611e07ecdcc96256ae8d5b80,611e7759c581a7e27d53c2c3,0.351,
,,,,space,,0,263,263,326,1,W, , , , ,space,2000,2,Visar,001,2021-08-19_16h23.25.171,natb3,2021.2.3,Win32,60.42661188,611e4473b1bc14664b7aa068,611e07ecdcc96256ae8d5b80,611e7759c581a7e27d53c2c3,0.5836,
,,,,space,,0,264,264,88,1,J, , , , ,space,2500,2.5,Visar,001,2021-08-19_16h23.25.171,natb3,2021.2.3,Win32,60.42661188,611e4473b1bc14664b7aa068,611e07ecdcc96256ae8d5b80,611e7759c581a7e27d53c2c3,0.3886,
,,,,,,0,265,265,35,1,X, , , , ,,2500,2.5,Visar,001,2021-08-19_16h23.25.171,natb3,2021.2.3,Win32,60.42661188,611e4473b1bc14664b7aa068,611e07ecdcc96256ae8d5b80,611e7759c581a7e27d53c2c3,,
,,,,space,,0,266,266,174,1,B, , , , ,space,2500,2.5,Visar,001,2021-08-19_16h23.25.171,natb3,2021.2.3,Win32,60.42661188,611e4473b1bc14664b7aa068,611e07ecdcc96256ae8d5b80,611e7759c581a7e27d53c2c3,0.4647,
,,,,,,0,267,267,315,1,X, , , , ,,2500,2.5,Visar,001,2021-08-19_16h23.25.171,natb3,2021.2.3,Win32,60.42661188,611e4473b1bc14664b7aa068,611e07ecdcc96256ae8d5b80,611e7759c581a7e27d53c2c3,,
,,,,space,,0,268,268,246,1,L, , , , ,space,2500,2.5,Visar,001,2021-08-19_16h23.25.171,natb3,2021.2.3,Win32,60.42661188,611e4473b1bc14664b7aa068,611e07ecdcc96256ae8d5b80,611e7759c581a7e27d53c2c3,0.4041,
,,,,space,,0,269,269,49,1,S, , , , ,space,1500,1.5,Visar,001,2021-08-19_16h23.25.171,natb3,2021.2.3,Win32,60.42661188,611e4473b1bc14664b7aa068,611e07ecdcc96256ae8d5b80,611e7759c581a7e27d53c2c3,0.4053,
,,,,space,,0,270,270,306,1,D, , , , ,space,2000,2,Visar,001,2021-08-19_16h23.25.171,natb3,2021.2.3,Win32,60.42661188,611e4473b1bc14664b7aa068,611e07ecdcc96256ae8d5b80,611e7759c581a7e27d53c2c3,0.3706,
,,,,,,0,271,271,255,1,X, , , , ,,1500,1.5,Visar,001,2021-08-19_16h23.25.171,natb3,2021.2.3,Win32,60.42661188,611e4473b1bc14664b7aa068,611e07ecdcc96256ae8d5b80,611e7759c581a7e27d53c2c3,,
,,,,,,0,272,272,213,1,X, , , , ,,2500,2.5,Visar,001,2021-08-19_16h23.25.171,natb3,2021.2.3,Win32,60.42661188,611e4473b1bc14664b7aa068,611e07ecdcc96256ae8d5b80,611e7759c581a7e27d53c2c3,,
,,,,space,,0,273,273,149,1,R, , , , ,space,2000,2,Visar,001,2021-08-19_16h23.25.171,natb3,2021.2.3,Win32,60.42661188,611e4473b1bc14664b7aa068,611e07ecdcc96256ae8d5b80,611e7759c581a7e27d53c2c3,0.4,
,,,,space,,0,274,274,165,1,J, , , , ,space,2500,2.5,Visar,001,2021-08-19_16h23.25.171,natb3,2021.2.3,Win32,60.42661188,611e4473b1bc14664b7aa068,611e07ecdcc96256ae8d5b80,611e7759c581a7e27d53c2c3,0.3683,
,,,,space,,0,275,275,257,1,W, , , , ,space,2000,2,Visar,001,2021-08-19_16h23.25.171,natb3,2021.2.3,Win32,60.42661188,611e4473b1bc14664b7aa068,611e07ecdcc96256ae8d5b80,611e7759c581a7e27d53c2c3,0.4917,
,,,,space,,0,276,276,178,1,Q, , , , ,space,1500,1.5,Visar,001,2021-08-19_16h23.25.171,natb3,2021.2.3,Win32,60.42661188,611e4473b1bc14664b7aa068,611e07ecdcc96256ae8d5b80,611e7759c581a7e27d53c2c3,0.4035,
,,,,space,,0,277,277,14,1,S, , , , ,space,2500,2.5,Visar,001,2021-08-19_16h23.25.171,natb3,2021.2.3,Win32,60.42661188,611e4473b1bc14664b7aa068,611e07ecdcc96256ae8d5b80,611e7759c581a7e27d53c2c3,0.4452,
,,,,space,,0,278,278,68,1,W, , , , ,space,2500,2.5,Visar,001,2021-08-19_16h23.25.171,natb3,2021.2.3,Win32,60.42661188,611e4473b1bc14664b7aa068,611e07ecdcc96256ae8d5b80,611e7759c581a7e27d53c2c3,0.3778,
,,,,space,,0,279,279,309,1,H, , , , ,space,2500,2.5,Visar,001,2021-08-19_16h23.25.171,natb3,2021.2.3,Win32,60.42661188,611e4473b1bc14664b7aa068,611e07ecdcc96256ae8d5b80,611e7759c581a7e27d53c2c3,0.4342,
,,,,space,,0,280,280,223,1,Q, , , , ,space,2000,2,Visar,001,2021-08-19_16h23.25.171,natb3,2021.2.3,Win32,60.42661188,611e4473b1bc14664b7aa068,611e07ecdcc96256ae8d5b80,611e7759c581a7e27d53c2c3,0.4014,
,,,,space,,0,281,281,113,1,W, , , , ,space,2500,2.5,Visar,001,2021-08-19_16h23.25.171,natb3,2021.2.3,Win32,60.42661188,611e4473b1bc14664b7aa068,611e07ecdcc96256ae8d5b80,611e7759c581a7e27d53c2c3,0.4674,
,,,,space,,0,282,282,132,1,H, , , , ,space,2500,2.5,Visar,001,2021-08-19_16h23.25.171,natb3,2021.2.3,Win32,60.42661188,611e4473b1bc14664b7aa068,611e07ecdcc96256ae8d5b80,611e7759c581a7e27d53c2c3,0.416,
,,,,space,,0,283,283,38,1,R, , , , ,space,2500,2.5,Visar,001,2021-08-19_16h23.25.171,natb3,2021.2.3,Win32,60.42661188,611e4473b1bc14664b7aa068,611e07ecdcc96256ae8d5b80,611e7759c581a7e27d53c2c3,0.3576,
,,,,space,,0,284,284,270,1,S, , , , ,space,1500,1.5,Visar,001,2021-08-19_16h23.25.171,natb3,2021.2.3,Win32,60.42661188,611e4473b1bc14664b7aa068,611e07ecdcc96256ae8d5b80,611e7759c581a7e27d53c2c3,0.4665,
,,,,,,0,285,285,18,1,X, ,2,5,8,,2500,2.5,Visar,001,2021-08-19_16h23.25.171,natb3,2021.2.3,Win32,60.42661188,611e4473b1bc14664b7aa068,611e07ecdcc96256ae8d5b80,611e7759c581a7e27d53c2c3,,
,,,,space,,0,286,286,12,1,X, , , , ,,1500,1.5,Visar,001,2021-08-19_16h23.25.171,natb3,2021.2.3,Win32,60.42661188,611e4473b1bc14664b7aa068,611e07ecdcc96256ae8d5b80,611e7759c581a7e27d53c2c3,0.4813,
,,,,space,,0,287,287,99,1,N, , , , ,space,2500,2.5,Visar,001,2021-08-19_16h23.25.171,natb3,2021.2.3,Win32,60.42661188,611e4473b1bc14664b7aa068,611e07ecdcc96256ae8d5b80,611e7759c581a7e27d53c2c3,0.3809,
,,,,space,,0,288,288,157,1,A, , , , ,space,2500,2.5,Visar,001,2021-08-19_16h23.25.171,natb3,2021.2.3,Win32,60.42661188,611e4473b1bc14664b7aa068,611e07ecdcc96256ae8d5b80,611e7759c581a7e27d53c2c3,0.6348,
,,,,space,,0,289,289,62,1,V, , , , ,space,1500,1.5,Visar,001,2021-08-19_16h23.25.171,natb3,2021.2.3,Win32,60.42661188,611e4473b1bc14664b7aa068,611e07ecdcc96256ae8d5b80,611e7759c581a7e27d53c2c3,0.8159,
,,,,,,0,290,290,295,1,X,8,7,5, ,,2500,2.5,Visar,001,2021-08-19_16h23.25.171,natb3,2021.2.3,Win32,60.42661188,611e4473b1bc14664b7aa068,611e07ecdcc96256ae8d5b80,611e7759c581a7e27d53c2c3,,
,,,,space,,0,291,291,296,1,Y, , , , ,space,2500,2.5,Visar,001,2021-08-19_16h23.25.171,natb3,2021.2.3,Win32,60.42661188,611e4473b1bc14664b7aa068,611e07ecdcc96256ae8d5b80,611e7759c581a7e27d53c2c3,0.5346,
,,,,,,0,292,292,169,1,L, , , , ,space,2500,2.5,Visar,001,2021-08-19_16h23.25.171,natb3,2021.2.3,Win32,60.42661188,611e4473b1bc14664b7aa068,611e07ecdcc96256ae8d5b80,611e7759c581a7e27d53c2c3,,
,,,,space,,0,293,293,250,1,V, , , , ,space,2000,2,Visar,001,2021-08-19_16h23.25.171,natb3,2021.2.3,Win32,60.42661188,611e4473b1bc14664b7aa068,611e07ecdcc96256ae8d5b80,611e7759c581a7e27d53c2c3,0.4426,
,,,,space,,0,294,294,209,1,N, , , , ,space,2000,2,Visar,001,2021-08-19_16h23.25.171,natb3,2021.2.3,Win32,60.42661188,611e4473b1bc14664b7aa068,611e07ecdcc96256ae8d5b80,611e7759c581a7e27d53c2c3,0.5676,
,,,,space,,0,295,295,271,1,X, , , , ,,2500,2.5,Visar,001,2021-08-19_16h23.25.171,natb3,2021.2.3,Win32,60.42661188,611e4473b1bc14664b7aa068,611e07ecdcc96256ae8d5b80,611e7759c581a7e27d53c2c3,0.4167,
,,,,space,,0,296,296,299,1,X, , , , ,,2500,2.5,Visar,001,2021-08-19_16h23.25.171,natb3,2021.2.3,Win32,60.42661188,611e4473b1bc14664b7aa068,611e07ecdcc96256ae8d5b80,611e7759c581a7e27d53c2c3,0.3929,
,,,,,,0,297,297,146,1,W, , , , ,space,1500,1.5,Visar,001,2021-08-19_16h23.25.171,natb3,2021.2.3,Win32,60.42661188,611e4473b1bc14664b7aa068,611e07ecdcc96256ae8d5b80,611e7759c581a7e27d53c2c3,,
,,,,space,,0,298,298,205,1,C, , , , ,space,2000,2,Visar,001,2021-08-19_16h23.25.171,natb3,2021.2.3,Win32,60.42661188,611e4473b1bc14664b7aa068,611e07ecdcc96256ae8d5b80,611e7759c581a7e27d53c2c3,0.6334,
,,,,,,0,299,299,153,1,X,4,7, ,6,,2000,2,Visar,001,2021-08-19_16h23.25.171,natb3,2021.2.3,Win32,60.42661188,611e4473b1bc14664b7aa068,611e07ecdcc96256ae8d5b80,611e7759c581a7e27d53c2c3,,
,,,,,,0,300,300,220,1,U, , , , ,space,2500,2.5,Visar,001,2021-08-19_16h23.25.171,natb3,2021.2.3,Win32,60.42661188,611e4473b1bc14664b7aa068,611e07ecdcc96256ae8d5b80,611e7759c581a7e27d53c2c3,,
,,,,,,0,301,301,125,1,X, , , , ,,2000,2,Visar,001,2021-08-19_16h23.25.171,natb3,2021.2.3,Win32,60.42661188,611e4473b1bc14664b7aa068,611e07ecdcc96256ae8d5b80,611e7759c581a7e27d53c2c3,,
,,,,,,0,302,302,175,1,X,7, ,4,2,,1500,1.5,Visar,001,2021-08-19_16h23.25.171,natb3,2021.2.3,Win32,60.42661188,611e4473b1bc14664b7aa068,611e07ecdcc96256ae8d5b80,611e7759c581a7e27d53c2c3,,
,,,,,,0,303,303,158,1,X, , , , ,,1500,1.5,Visar,001,2021-08-19_16h23.25.171,natb3,2021.2.3,Win32,60.42661188,611e4473b1bc14664b7aa068,611e07ecdcc96256ae8d5b80,611e7759c581a7e27d53c2c3,,
,,,,space,,0,304,304,254,1,M, , , , ,space,1500,1.5,Visar,001,2021-08-19_16h23.25.171,natb3,2021.2.3,Win32,60.42661188,611e4473b1bc14664b7aa068,611e07ecdcc96256ae8d5b80,611e7759c581a7e27d53c2c3,0.5679,
,,,,,,0,305,305,302,1,X, , , , ,,2000,2,Visar,001,2021-08-19_16h23.25.171,natb3,2021.2.3,Win32,60.42661188,611e4473b1bc14664b7aa068,611e07ecdcc96256ae8d5b80,611e7759c581a7e27d53c2c3,,
,,,,space,,0,306,306,150,1,T, , , , ,space,2500,2.5,Visar,001,2021-08-19_16h23.25.171,natb3,2021.2.3,Win32,60.42661188,611e4473b1bc14664b7aa068,611e07ecdcc96256ae8d5b80,611e7759c581a7e27d53c2c3,0.381,
,,,,space,,0,307,307,156,1,P, , , , ,space,1500,1.5,Visar,001,2021-08-19_16h23.25.171,natb3,2021.2.3,Win32,60.42661188,611e4473b1bc14664b7aa068,611e07ecdcc96256ae8d5b80,611e7759c581a7e27d53c2c3,0.5905,
,,,,space,,0,308,308,86,1,G, , , , ,space,2000,2,Visar,001,2021-08-19_16h23.25.171,natb3,2021.2.3,Win32,60.42661188,611e4473b1bc14664b7aa068,611e07ecdcc96256ae8d5b80,611e7759c581a7e27d53c2c3,0.5555,
,,,,space,,0,309,309,97,1,B, , , , ,space,2500,2.5,Visar,001,2021-08-19_16h23.25.171,natb3,2021.2.3,Win32,60.42661188,611e4473b1bc14664b7aa068,611e07ecdcc96256ae8d5b80,611e7759c581a7e27d53c2c3,0.5203,
,,,,,,0,310,310,107,1,X,9,3, ,2,,2000,2,Visar,001,2021-08-19_16h23.25.171,natb3,2021.2.3,Win32,60.42661188,611e4473b1bc14664b7aa068,611e07ecdcc96256ae8d5b80,611e7759c581a7e27d53c2c3,,
,,,,,,0,311,311,238,1,D, , , , ,space,1500,1.5,Visar,001,2021-08-19_16h23.25.171,natb3,2021.2.3,Win32,60.42661188,611e4473b1bc14664b7aa068,611e07ecdcc96256ae8d5b80,611e7759c581a7e27d53c2c3,,
,,,,space,,0,312,312,159,1,S, , , , ,space,2500,2.5,Visar,001,2021-08-19_16h23.25.171,natb3,2021.2.3,Win32,60.42661188,611e4473b1bc14664b7aa068,611e07ecdcc96256ae8d5b80,611e7759c581a7e27d53c2c3,0.4211,
,,,,space,,0,313,313,37,1,E, , , , ,space,2500,2.5,Visar,001,2021-08-19_16h23.25.171,natb3,2021.2.3,Win32,60.42661188,611e4473b1bc14664b7aa068,611e07ecdcc96256ae8d5b80,611e7759c581a7e27d53c2c3,0.4711,
,,,,,,0,314,314,133,1,X, ,4, ,6,,2500,2.5,Visar,001,2021-08-19_16h23.25.171,natb3,2021.2.3,Win32,60.42661188,611e4473b1bc14664b7aa068,611e07ecdcc96256ae8d5b80,611e7759c581a7e27d53c2c3,,
,,,,,,0,315,315,191,1,X,1, ,3,4,,2500,2.5,Visar,001,2021-08-19_16h23.25.171,natb3,2021.2.3,Win32,60.42661188,611e4473b1bc14664b7aa068,611e07ecdcc96256ae8d5b80,611e7759c581a7e27d53c2c3,,
,,,,space,,0,316,316,286,1,N, , , , ,space,1500,1.5,Visar,001,2021-08-19_16h23.25.171,natb3,2021.2.3,Win32,60.42661188,611e4473b1bc14664b7aa068,611e07ecdcc96256ae8d5b80,611e7759c581a7e27d53c2c3,0.4989,
,,,,space,,0,317,317,212,1,Q, , , , ,space,2500,2.5,Visar,001,2021-08-19_16h23.25.171,natb3,2021.2.3,Win32,60.42661188,611e4473b1bc14664b7aa068,611e07ecdcc96256ae8d5b80,611e7759c581a7e27d53c2c3,0.5145,
,,,,space,,0,318,318,317,1,C, , , , ,space,2000,2,Visar,001,2021-08-19_16h23.25.171,natb3,2021.2.3,Win32,60.42661188,611e4473b1bc14664b7aa068,611e07ecdcc96256ae8d5b80,611e7759c581a7e27d53c2c3,0.5374,
,,,,space,,0,319,319,48,1,A, , , , ,space,2500,2.5,Visar,001,2021-08-19_16h23.25.171,natb3,2021.2.3,Win32,60.42661188,611e4473b1bc14664b7aa068,611e07ecdcc96256ae8d5b80,611e7759c581a7e27d53c2c3,0.5327,
,,,,space,,0,320,320,110,1,I, , , , ,space,1500,1.5,Visar,001,2021-08-19_16h23.25.171,natb3,2021.2.3,Win32,60.42661188,611e4473b1bc14664b7aa068,611e07ecdcc96256ae8d5b80,611e7759c581a7e27d53c2c3,0.5044,
,,,,space,,0,321,321,234,1,P, , , , ,space,2000,2,Visar,001,2021-08-19_16h23.25.171,natb3,2021.2.3,Win32,60.42661188,611e4473b1bc14664b7aa068,611e07ecdcc96256ae8d5b80,611e7759c581a7e27d53c2c3,0.319,
,,,,space,,0,322,322,114,1,E, , , , ,space,2000,2,Visar,001,2021-08-19_16h23.25.171,natb3,2021.2.3,Win32,60.42661188,611e4473b1bc14664b7aa068,611e07ecdcc96256ae8d5b80,611e7759c581a7e27d53c2c3,0.4153,
,,,,space,,0,323,323,52,1,F, , , , ,space,1500,1.5,Visar,001,2021-08-19_16h23.25.171,natb3,2021.2.3,Win32,60.42661188,611e4473b1bc14664b7aa068,611e07ecdcc96256ae8d5b80,611e7759c581a7e27d53c2c3,0.4763,
,,,,space,,0,324,324,56,1,J, , , , ,space,1500,1.5,Visar,001,2021-08-19_16h23.25.171,natb3,2021.2.3,Win32,60.42661188,611e4473b1bc14664b7aa068,611e07ecdcc96256ae8d5b80,611e7759c581a7e27d53c2c3,0.3688,
,,,,,,0,325,325,171,1,X, , , , ,,1500,1.5,Visar,001,2021-08-19_16h23.25.171,natb3,2021.2.3,Win32,60.42661188,611e4473b1bc14664b7aa068,611e07ecdcc96256ae8d5b80,611e7759c581a7e27d53c2c3,,
,,,,space,,0,326,326,278,1,J, , , , ,space,2000,2,Visar,001,2021-08-19_16h23.25.171,natb3,2021.2.3,Win32,60.42661188,611e4473b1bc14664b7aa068,611e07ecdcc96256ae8d5b80,611e7759c581a7e27d53c2c3,0.515,
,,,,space,,0,327,327,240,1,F, , , , ,space,2500,2.5,Visar,001,2021-08-19_16h23.25.171,natb3,2021.2.3,Win32,60.42661188,611e4473b1bc14664b7aa068,611e07ecdcc96256ae8d5b80,611e7759c581a7e27d53c2c3,0.4202,
,,,,,,0,328,328,102,1,X, ,6, , ,,1500,1.5,Visar,001,2021-08-19_16h23.25.171,natb3,2021.2.3,Win32,60.42661188,611e4473b1bc14664b7aa068,611e07ecdcc96256ae8d5b80,611e7759c581a7e27d53c2c3,,
,,,,space,,0,329,329,127,1,S, , , , ,space,2500,2.5,Visar,001,2021-08-19_16h23.25.171,natb3,2021.2.3,Win32,60.42661188,611e4473b1bc14664b7aa068,611e07ecdcc96256ae8d5b80,611e7759c581a7e27d53c2c3,0.471,
,,,,,,0,330,330,329,1,X,3,4, ,2,,2500,2.5,Visar,001,2021-08-19_16h23.25.171,natb3,2021.2.3,Win32,60.42661188,611e4473b1bc14664b7aa068,611e07ecdcc96256ae8d5b80,611e7759c581a7e27d53c2c3,,
,,,,space,,0,331,331,227,1,T, , , , ,space,1500,1.5,Visar,001,2021-08-19_16h23.25.171,natb3,2021.2.3,Win32,60.42661188,611e4473b1bc14664b7aa068,611e07ecdcc96256ae8d5b80,611e7759c581a7e27d53c2c3,0.5047,
,,,,,,0,332,332,145,1,X, , , , ,,2000,2,Visar,001,2021-08-19_16h23.25.171,natb3,2021.2.3,Win32,60.42661188,611e4473b1bc14664b7aa068,611e07ecdcc96256ae8d5b80,611e7759c581a7e27d53c2c3,,
,,,,space,,0,333,333,128,1,D, , , , ,space,2500,2.5,Visar,001,2021-08-19_16h23.25.171,natb3,2021.2.3,Win32,60.42661188,611e4473b1bc14664b7aa068,611e07ecdcc96256ae8d5b80,611e7759c581a7e27d53c2c3,0.5153,
,,,,,,0,334,334,69,1,X, , , , ,,1500,1.5,Visar,001,2021-08-19_16h23.25.171,natb3,2021.2.3,Win32,60.42661188,611e4473b1bc14664b7aa068,611e07ecdcc96256ae8d5b80,611e7759c581a7e27d53c2c3,,
,,,,space,,0,335,335,267,1,P, , , , ,space,2000,2,Visar,001,2021-08-19_16h23.25.171,natb3,2021.2.3,Win32,60.42661188,611e4473b1bc14664b7aa068,611e07ecdcc96256ae8d5b80,611e7759c581a7e27d53c2c3,0.854,
